* Measurement data measured by REW V5.20.4
* Source: Lyra L
* Format: 
* Dated: Jul 11, 2022 3:32:04 PM
* REW Settings:
*  C-weighting compensation: Off
*  Target level: 75.0 dB
* Note: 
* Measurement: Lyra L
* Smoothing: 1/48 octave
* Frequency Step: 96 ppo
* Start Frequency: 20.0 Hz
*
* Freq(Hz) SPL(dB)
20.055882 69.125
20.201214 69.418
20.347601 69.489
20.495049 69.516
20.643564 69.550
20.793156 69.570
20.943832 69.590
21.095600 69.609
21.248468 69.627
21.402443 69.643
21.557533 69.656
21.713749 69.666
21.871096 69.674
22.029583 69.679
22.189219 69.683
22.350010 69.685
22.511967 69.686
22.675098 69.686
22.839411 69.685
23.004915 69.684
23.171618 69.684
23.339529 69.684
23.508657 69.684
23.679010 69.685
23.850597 69.685
24.023428 69.684
24.197512 69.683
24.372856 69.681
24.549473 69.679
24.727369 69.678
24.906553 69.676
25.087036 69.675
25.268827 69.673
25.451937 69.672
25.636372 69.671
25.822144 69.671
26.009262 69.670
26.197737 69.670
26.387577 69.671
26.578793 69.671
26.771393 69.672
26.965389 69.673
27.160791 69.674
27.357609 69.674
27.555853 69.674
27.755533 69.674
27.956661 69.674
28.159246 69.675
28.363300 69.676
28.568832 69.677
28.775854 69.678
28.984375 69.679
29.194408 69.679
29.405964 69.678
29.619051 69.677
29.833683 69.675
30.049870 69.672
30.267624 69.669
30.486956 69.665
30.707876 69.661
30.930399 69.657
31.154533 69.653
31.380293 69.650
31.607687 69.646
31.836729 69.642
32.067432 69.636
32.299805 69.629
32.533863 69.621
32.769615 69.611
33.007076 69.601
33.246258 69.590
33.487175 69.579
33.729836 69.568
33.974255 69.557
34.220448 69.545
34.468422 69.533
34.718193 69.520
34.969776 69.508
35.223183 69.496
35.478424 69.486
35.735516 69.477
35.994469 69.468
36.255299 69.460
36.518021 69.453
36.782646 69.445
37.049187 69.436
37.317661 69.428
37.588081 69.418
37.860458 69.408
38.134811 69.398
38.411152 69.387
38.689495 69.376
38.969856 69.364
39.252247 69.352
39.536686 69.340
39.823185 69.327
40.111759 69.315
40.402424 69.302
40.695198 69.289
40.990093 69.277
41.287125 69.264
41.586308 69.250
41.887657 69.237
42.191193 69.223
42.496929 69.209
42.804878 69.194
43.115059 69.179
43.427490 69.163
43.742184 69.147
44.059158 69.131
44.378429 69.115
44.700012 69.098
45.023926 69.081
45.350189 69.064
45.678814 69.047
46.009823 69.029
46.343227 69.010
46.679050 68.992
47.017307 68.972
47.358013 68.953
47.701187 68.935
48.046848 68.916
48.395016 68.899
48.745705 68.882
49.098938 68.866
49.454731 68.851
49.813099 68.836
50.174065 68.822
50.537647 68.807
50.903862 68.792
51.272732 68.777
51.644276 68.761
52.018513 68.744
52.395462 68.726
52.775143 68.708
53.157574 68.690
53.542774 68.671
53.930767 68.652
54.321571 68.633
54.715206 68.613
55.111694 68.593
55.511055 68.574
55.913311 68.554
56.318481 68.533
56.726589 68.513
57.137653 68.493
57.551697 68.473
57.968739 68.453
58.388805 68.434
58.811916 68.415
59.238091 68.397
59.667355 68.377
60.099728 68.357
60.535236 68.335
60.973900 68.312
61.415741 68.289
61.860786 68.265
62.309055 68.242
62.760571 68.219
63.215359 68.197
63.673443 68.174
64.134850 68.152
64.599594 68.129
65.067711 68.106
65.539215 68.084
66.014137 68.061
66.492500 68.039
66.974335 68.017
67.459656 67.996
67.948494 67.976
68.440880 67.955
68.936829 67.934
69.436371 67.912
69.939537 67.888
70.446350 67.862
70.956833 67.835
71.471016 67.806
71.988922 67.777
72.510582 67.747
73.036026 67.719
73.565277 67.691
74.098358 67.664
74.635307 67.638
75.176147 67.612
75.720901 67.586
76.269608 67.561
76.822289 67.536
77.378975 67.510
77.939697 67.484
78.504478 67.458
79.073357 67.431
79.646355 67.404
80.223503 67.375
80.804832 67.347
81.390381 67.317
81.980171 67.288
82.574234 67.258
83.172600 67.229
83.775299 67.200
84.382370 67.172
84.993843 67.144
85.609741 67.116
86.230103 67.088
86.854965 67.059
87.484352 67.029
88.118301 66.999
88.756844 66.969
89.400009 66.939
90.047836 66.909
90.700363 66.878
91.357613 66.847
92.019630 66.815
92.686440 66.783
93.358086 66.752
94.034599 66.720
94.716011 66.689
95.402359 66.658
96.093681 66.627
96.790016 66.597
97.491394 66.566
98.197853 66.536
98.909431 66.504
99.626167 66.473
100.348099 66.441
101.075264 66.409
101.807693 66.377
102.545433 66.344
103.288521 66.312
104.036995 66.279
104.790894 66.247
105.550255 66.216
106.315117 66.184
107.085518 66.153
107.861504 66.121
108.643112 66.088
109.430382 66.055
110.223358 66.021
111.022079 65.988
111.826591 65.955
112.636932 65.923
113.453148 65.892
114.275276 65.860
115.103363 65.827
115.937447 65.793
116.777580 65.758
117.623802 65.722
118.476151 65.687
119.334679 65.652
120.199425 65.619
121.070442 65.587
121.947769 65.555
122.831451 65.524
123.721542 65.492
124.618080 65.459
125.521111 65.425
126.430687 65.391
127.346855 65.357
128.269669 65.323
129.199158 65.291
130.135391 65.259
131.078400 65.227
132.028244 65.195
132.984970 65.163
133.948639 65.129
134.919281 65.096
135.896957 65.062
136.881729 65.029
137.873627 64.995
138.872711 64.962
139.879044 64.928
140.892670 64.894
141.913635 64.862
142.942001 64.831
143.977814 64.802
145.021133 64.772
146.072021 64.740
147.130524 64.706
148.196686 64.670
149.270584 64.634
150.352264 64.598
151.441772 64.563
152.539185 64.529
153.644547 64.497
154.757919 64.463
155.879364 64.430
157.008926 64.395
158.146683 64.360
159.292679 64.325
160.446976 64.290
161.609634 64.257
162.780731 64.224
163.960312 64.192
165.148438 64.160
166.345169 64.128
167.550568 64.096
168.764709 64.062
169.987656 64.028
171.219452 63.994
172.460175 63.960
173.709885 63.925
174.968658 63.890
176.236557 63.854
177.513641 63.817
178.799973 63.779
180.095627 63.740
181.400681 63.701
182.715179 63.664
184.039215 63.628
185.372833 63.594
186.716125 63.561
188.069153 63.529
189.431976 63.497
190.804672 63.465
192.187317 63.434
193.579987 63.401
194.982742 63.367
196.395660 63.331
197.818817 63.294
199.252289 63.255
200.696152 63.216
202.150482 63.177
203.615341 63.139
205.090820 63.102
206.576996 63.065
208.073944 63.028
209.581726 62.990
211.100449 62.952
212.630173 62.915
214.170975 62.878
215.722946 62.841
217.286163 62.805
218.860703 62.769
220.446655 62.734
222.044098 62.700
223.653122 62.666
225.273804 62.631
226.906235 62.597
228.550491 62.562
230.206665 62.527
231.874832 62.492
233.555099 62.458
235.247543 62.423
236.952240 62.388
238.669296 62.353
240.398788 62.318
242.140823 62.283
243.895477 62.247
245.662842 62.212
247.443008 62.177
249.236084 62.143
251.042145 62.108
252.861298 62.074
254.693634 62.039
256.539246 62.004
258.398224 61.970
260.270691 61.937
262.156708 61.905
264.056396 61.875
265.969849 61.847
267.897186 61.822
269.838470 61.799
271.793823 61.780
273.763367 61.763
275.747162 61.748
277.745331 61.735
279.757996 61.723
281.785248 61.713
283.827179 61.703
285.883911 61.694
287.955536 61.682
290.042175 61.667
292.143951 61.648
294.260956 61.626
296.393280 61.603
298.541077 61.579
300.704437 61.553
302.883453 61.526
305.078278 61.497
307.289001 61.467
309.515747 61.435
311.758636 61.403
314.017761 61.372
316.293274 61.342
318.585266 61.313
320.893860 61.285
323.219177 61.258
325.561371 61.231
327.920532 61.205
330.296783 61.179
332.690247 61.152
335.101044 61.125
337.529327 61.098
339.975189 61.070
342.438782 61.043
344.920227 61.015
347.419647 60.987
349.937195 60.958
352.472992 60.928
355.027161 60.899
357.599823 60.869
360.191132 60.839
362.801239 60.810
365.430237 60.782
368.078308 60.753
370.745544 60.724
373.432129 60.695
376.138184 60.667
378.863831 60.639
381.609222 60.610
384.374512 60.581
387.159851 60.552
389.965363 60.525
392.791199 60.499
395.637512 60.475
398.504456 60.451
401.392181 60.427
404.300842 60.403
407.230560 60.379
410.181519 60.356
413.153870 60.333
416.147766 60.310
419.163330 60.287
422.200775 60.265
425.260223 60.244
428.341827 60.223
431.445770 60.203
434.572205 60.183
437.721283 60.162
440.893188 60.140
444.088074 60.118
447.306122 60.096
450.547485 60.074
453.812347 60.051
457.100861 60.028
460.413208 60.004
463.749542 59.980
467.110077 59.954
470.494934 59.927
473.904327 59.902
477.338440 59.878
480.797424 59.858
484.281494 59.841
487.790802 59.825
491.325531 59.811
494.885864 59.796
498.472015 59.780
502.084137 59.765
505.722443 59.749
509.387115 59.734
513.078369 59.718
516.796326 59.703
520.541260 59.687
524.313293 59.671
528.112671 59.655
531.939575 59.640
535.794250 59.625
539.676819 59.610
543.587524 59.594
547.526611 59.574
551.494202 59.550
555.490540 59.519
559.515869 59.480
563.570374 59.437
567.654236 59.394
571.767700 59.355
575.910950 59.325
580.084229 59.305
584.287781 59.292
588.521790 59.283
592.786438 59.275
597.082031 59.267
601.408752 59.259
605.766785 59.250
610.156433 59.241
614.577881 59.231
619.031372 59.220
623.517151 59.209
628.035400 59.197
632.586426 59.184
637.170410 59.172
641.787598 59.160
646.438232 59.148
651.122620 59.137
655.840942 59.126
660.593445 59.115
665.380371 59.105
670.201965 59.096
675.058533 59.090
679.950256 59.087
684.877441 59.086
689.840332 59.086
694.839172 59.087
699.874268 59.089
704.945862 59.090
710.054199 59.091
715.199524 59.095
720.382141 59.100
725.602356 59.107
730.860352 59.113
736.156494 59.118
741.490967 59.121
746.864136 59.124
752.276245 59.127
757.727539 59.131
763.218323 59.135
768.748901 59.139
774.319580 59.143
779.930603 59.148
785.582275 59.151
791.274902 59.153
797.008789 59.156
802.784241 59.160
808.601562 59.167
814.460999 59.175
820.362915 59.185
826.307617 59.195
832.295410 59.206
838.326538 59.216
844.401428 59.227
850.520325 59.240
856.683533 59.255
862.891418 59.272
869.144287 59.292
875.442444 59.313
881.786255 59.335
888.176025 59.359
894.612122 59.384
901.094849 59.412
907.624573 59.441
914.201599 59.472
920.826294 59.504
927.498962 59.538
934.220032 59.574
940.989746 59.612
947.808533 59.651
954.676758 59.693
961.594727 59.738
968.562866 59.786
975.581482 59.837
982.650940 59.890
989.771606 59.945
996.943909 60.000
1004.168152 60.058
1011.444763 60.118
1018.774109 60.181
1026.156616 60.244
1033.592529 60.308
1041.082397 60.373
1048.626465 60.441
1056.225220 60.512
1063.879028 60.588
1071.588379 60.665
1079.353516 60.744
1087.174927 60.823
1095.053101 60.904
1102.988281 60.986
1110.980957 61.071
1119.031616 61.155
1127.140625 61.239
1135.308350 61.323
1143.535278 61.407
1151.821777 61.492
1160.168335 61.577
1168.575439 61.661
1177.043457 61.744
1185.572754 61.826
1194.163940 61.909
1202.817383 61.993
1211.533447 62.077
1220.312744 62.162
1229.155640 62.246
1238.062622 62.330
1247.034180 62.415
1256.070679 62.499
1265.172729 62.583
1274.340698 62.667
1283.575073 62.750
1292.876343 62.834
1302.245117 62.919
1311.681763 63.003
1321.186768 63.087
1330.760620 63.171
1340.403809 63.254
1350.116943 63.337
1359.900391 63.422
1369.754761 63.507
1379.680542 63.593
1389.678223 63.679
1399.748413 63.766
1409.891602 63.854
1420.108276 63.943
1430.398926 64.033
1440.764160 64.122
1451.204590 64.212
1461.720581 64.302
1472.312866 64.391
1482.981812 64.481
1493.728149 64.571
1504.552368 64.660
1515.454956 64.749
1526.436523 64.838
1537.497681 64.927
1548.639038 65.017
1559.861084 65.107
1571.164429 65.196
1582.549683 65.284
1594.017456 65.372
1605.568359 65.460
1617.203003 65.547
1628.921875 65.633
1640.725708 65.719
1652.615112 65.804
1664.590698 65.891
1676.652954 65.979
1688.802612 66.066
1701.040405 66.154
1713.366821 66.241
1725.782593 66.328
1738.288330 66.415
1750.884644 66.503
1763.572266 66.592
1776.351807 66.682
1789.223999 66.774
1802.189453 66.868
1815.248901 66.963
1828.402954 67.059
1841.652344 67.155
1854.997681 67.251
1868.439819 67.346
1881.979248 67.441
1895.616821 67.536
1909.353271 67.630
1923.189209 67.725
1937.125488 67.819
1951.162720 67.911
1965.301636 68.003
1979.542969 68.092
1993.887573 68.179
2008.336060 68.263
2022.889282 68.346
2037.547974 68.428
2052.312988 68.508
2067.184814 68.588
2082.164551 68.666
2097.252686 68.743
2112.450195 68.816
2127.757812 68.887
2143.176514 68.955
2158.706787 69.019
2174.349609 69.079
2190.105957 69.134
2205.976318 69.187
2221.961670 69.235
2238.062988 69.280
2254.281006 69.320
2270.616455 69.357
2287.070312 69.390
2303.643311 69.419
2320.336426 69.443
2337.150635 69.464
2354.086670 69.479
2371.145264 69.490
2388.327637 69.496
2405.634521 69.498
2423.066650 69.497
2440.625244 69.493
2458.311035 69.487
2476.125000 69.478
2494.068115 69.466
2512.141113 69.451
2530.345215 69.432
2548.681152 69.410
2567.149902 69.386
2585.752441 69.361
2604.489990 69.333
2623.363281 69.305
2642.373291 69.275
2661.520996 69.243
2680.807373 69.209
2700.233643 69.173
2719.800537 69.135
2739.509277 69.094
2759.360840 69.051
2779.356201 69.006
2799.496582 68.959
2819.782959 68.910
2840.216309 68.860
2860.797607 68.810
2881.528076 68.759
2902.408936 68.708
2923.440918 68.658
2944.625488 68.607
2965.963379 68.555
2987.456055 68.503
3009.104492 68.451
3030.909668 68.400
3052.872803 68.349
3074.995117 68.299
3097.277832 68.249
3119.721924 68.198
3142.328613 68.148
3165.099121 68.097
3188.034668 68.045
3211.136475 67.994
3234.405762 67.945
3257.843506 67.898
3281.451172 67.854
3305.229980 67.812
3329.181152 67.773
3353.305664 67.735
3377.604980 67.699
3402.080566 67.664
3426.733398 67.632
3451.564941 67.601
3476.576416 67.573
3501.769043 67.546
3527.144287 67.522
3552.703369 67.501
3578.447754 67.486
3604.378662 67.475
3630.497559 67.469
3656.805664 67.467
3683.304443 67.469
3709.995117 67.475
3736.879150 67.485
3763.958008 67.497
3791.233154 67.510
3818.706055 67.524
3846.377930 67.541
3874.250488 67.561
3902.324951 67.585
3930.602783 67.612
3959.085449 67.642
3987.774658 67.674
4016.671631 67.709
4045.778076 67.748
4075.095459 67.790
4104.625488 67.835
4134.369141 67.882
4164.328613 67.932
4194.504883 67.984
4224.899902 68.038
4255.515137 68.094
4286.352539 68.152
4317.413086 68.214
4348.698730 68.280
4380.211426 68.350
4411.952148 68.422
4443.922852 68.493
4476.125488 68.561
4508.561523 68.625
4541.232422 68.686
4574.140137 68.743
4607.286133 68.793
4640.672363 68.836
4674.300781 68.868
4708.172852 68.889
4742.290039 68.899
4776.654785 68.895
4811.268555 68.879
4846.132812 68.850
4881.250000 68.806
4916.621582 68.750
4952.249512 68.680
4988.135742 68.598
5024.281738 68.505
5060.689941 68.400
5097.361816 68.288
5134.299316 68.169
5171.504395 68.046
5208.979004 67.919
5246.725586 67.789
5284.745605 67.655
5323.041016 67.519
5361.613770 67.380
5400.466309 67.237
5439.600098 67.089
5479.017578 66.934
5518.720703 66.774
5558.711426 66.612
5598.992188 66.451
5639.564941 66.293
5680.431641 66.140
5721.594238 65.994
5763.055176 65.855
5804.816406 65.729
5846.880371 65.618
5889.249512 65.520
5931.925293 65.434
5974.910645 65.355
6018.207520 65.285
6061.817871 65.222
6105.744141 65.167
6149.988770 65.120
6194.554199 65.076
6239.442383 65.034
6284.655762 64.990
6330.196777 64.948
6376.067871 64.907
6422.271484 64.870
6468.810059 64.837
6515.685547 64.808
6562.900879 64.786
6610.458496 64.771
6658.360840 64.765
6706.609863 64.770
6755.208496 64.788
6804.159668 64.821
6853.465332 64.874
6903.128418 64.948
6953.151367 65.046
7003.536621 65.173
7054.287109 65.331
7105.405273 65.525
7156.894043 65.761
7208.755859 66.038
7260.993652 66.361
7313.609863 66.730
7366.607422 67.147
7419.988770 67.617
7473.756836 68.142
7527.914551 68.730
7582.464844 69.384
7637.410645 70.103
7692.754395 70.875
7748.499023 71.658
7804.647949 72.395
7861.203613 73.028
7918.168945 73.512
7975.547363 73.818
8033.341309 73.929
8091.554199 73.838
8150.188965 73.536
8209.249023 73.018
8268.736328 72.298
8328.655273 71.419
8389.007812 70.445
8449.797852 69.449
8511.028320 68.480
8572.703125 67.562
8634.824219 66.698
8697.395508 65.887
8760.420898 65.120
8823.902344 64.382
8887.843750 63.666
8952.249023 62.991
9017.121094 62.395
9082.462891 61.894
9148.278320 61.468
9214.570312 61.091
9281.342773 60.749
9348.599609 60.437
9416.343750 60.152
9484.578125 59.894
9553.307617 59.663
9622.535156 59.464
9692.263672 59.298
9762.498047 59.167
9833.241211 59.070
9904.497070 59.008
9976.269531 58.982
10048.561523 58.991
10121.377930 59.033
10194.721680 59.111
10268.596680 59.219
10343.006836 59.351
10417.956055 59.496
10493.449219 59.646
10569.489258 59.793
10646.080078 59.933
10723.225586 60.062
10800.930664 60.172
10879.198242 60.248
10958.033203 60.274
11037.439453 60.238
11117.420898 60.130
11197.982422 59.937
11279.127930 59.653
11360.861328 59.282
11443.186523 58.833
11526.108398 58.307
11609.630859 57.713
11693.758789 57.071
11778.497070 56.402
11863.848633 55.723
11949.819336 55.060
12036.413086 54.448
12123.633789 53.928
12211.486328 53.503
12299.975586 53.139
12389.106445 52.810
12478.882812 52.504
12569.309570 52.219
12660.391602 51.960
12752.133789 51.727
12844.541016 51.493
12937.618164 51.231
13031.369141 50.939
13125.799805 50.626
13220.915039 50.293
13316.719727 49.927
13413.217773 49.516
13510.415039 49.057
13608.317383 48.549
13706.928711 47.978
13806.254883 47.357
13906.300781 46.753
14007.071289 46.251
14108.572266 45.908
14210.808594 45.720
14313.786133 45.662
14417.509766 45.765
14521.985352 46.197
14627.217773 47.098
14733.212891 48.269
14839.975586 49.527
14947.511719 50.828
15055.827148 52.100
15164.927734 53.115
15274.819336 53.491
15385.506836 53.174
15496.996094 52.810
15609.293945 53.466
15722.405273 55.141
15836.335938 56.920
15951.092773 58.256
16066.680664 58.958
16183.106445 58.976
16300.375977 58.346
16418.496094 57.175
16537.470703 55.611
16657.308594 53.811
16778.013672 51.907
16899.593750 50.051
17022.054688 48.371
17145.404297 46.888
17269.646484 45.641
17394.789062 44.673
17520.839844 43.949
17647.802734 43.397
17775.685547 42.959
17904.496094 42.582
18034.240234 42.222
18164.923828 41.844
18296.554688 41.417
18429.138672 40.915
18562.683594 40.329
18697.197266 39.661
18832.685547 38.919
18969.154297 38.112
19106.613281 37.249
19245.068359 36.340
19384.525391 35.386
19524.994141 34.373
19666.480469 33.300
19808.992188 32.281
19952.537109 31.773
