* Measurement data measured by REW V5.20.4
* Source: Trace Arithmetic result A * B
* Format: Trace Arithmetic result A * B
* Dated: Jul 10, 2022 6:49:28 PM
* REW Settings:
*  C-weighting compensation: Off
*  Target level: 75.0 dB
* Note: Trace Arithmetic A times B A = ESX R NC B = Aster Correction Averaged Fin
* Measurement: ESX R
* Smoothing: 1/48 octave
* Frequency Step: 96 ppo
* Start Frequency: 20.0 Hz
*
* Freq(Hz) SPL(dB)
20.055882 71.214
20.201214 71.504
20.347601 71.571
20.495049 71.595
20.643564 71.624
20.793156 71.640
20.943832 71.657
21.095600 71.673
21.248468 71.687
21.402443 71.699
21.557533 71.710
21.713749 71.717
21.871096 71.721
22.029583 71.723
22.189219 71.723
22.350010 71.722
22.511967 71.720
22.675098 71.717
22.839411 71.713
23.004915 71.708
23.171618 71.705
23.339529 71.702
23.508657 71.700
23.679010 71.697
23.850597 71.695
24.023428 71.691
24.197512 71.688
24.372856 71.684
24.549473 71.680
24.727369 71.677
24.906553 71.674
25.087036 71.671
25.268827 71.668
25.451937 71.665
25.636372 71.663
25.822144 71.661
26.009262 71.659
26.197737 71.658
26.387577 71.657
26.578793 71.656
26.771393 71.656
26.965389 71.655
27.160791 71.655
27.357609 71.654
27.555853 71.652
27.755533 71.651
27.956661 71.649
28.159246 71.648
28.363300 71.647
28.568832 71.647
28.775854 71.646
28.984375 71.644
29.194408 71.642
29.405964 71.639
29.619051 71.635
29.833683 71.631
30.049870 71.625
30.267624 71.620
30.486956 71.614
30.707876 71.607
30.930399 71.601
31.154533 71.596
31.380293 71.590
31.607687 71.585
31.836729 71.580
32.067432 71.574
32.299805 71.566
32.533863 71.558
32.769615 71.549
33.007076 71.540
33.246258 71.530
33.487175 71.521
33.729836 71.511
33.974255 71.501
34.220448 71.490
34.468422 71.478
34.718193 71.465
34.969776 71.451
35.223183 71.436
35.478424 71.422
35.735516 71.407
35.994469 71.392
36.255299 71.377
36.518021 71.361
36.782646 71.345
37.049187 71.328
37.317661 71.311
37.588081 71.293
37.860458 71.276
38.134811 71.260
38.411152 71.244
38.689495 71.228
38.969856 71.212
39.252247 71.197
39.536686 71.182
39.823185 71.168
40.111759 71.153
40.402424 71.139
40.695198 71.124
40.990093 71.110
41.287125 71.095
41.586308 71.080
41.887657 71.065
42.191193 71.050
42.496929 71.035
42.804878 71.019
43.115059 71.004
43.427490 70.988
43.742184 70.971
44.059158 70.954
44.378429 70.936
44.700012 70.918
45.023926 70.900
45.350189 70.881
45.678814 70.863
46.009823 70.844
46.343227 70.825
46.679050 70.806
47.017307 70.787
47.358013 70.768
47.701187 70.749
48.046848 70.731
48.395016 70.712
48.745705 70.694
49.098938 70.675
49.454731 70.657
49.813099 70.638
50.174065 70.618
50.537647 70.598
50.903862 70.578
51.272732 70.557
51.644276 70.535
52.018513 70.513
52.395462 70.491
52.775143 70.469
53.157574 70.446
53.542774 70.424
53.930767 70.402
54.321571 70.380
54.715206 70.359
55.111694 70.337
55.511055 70.316
55.913311 70.295
56.318481 70.275
56.726589 70.254
57.137653 70.234
57.551697 70.213
57.968739 70.192
58.388805 70.170
58.811916 70.146
59.238091 70.121
59.667355 70.095
60.099728 70.067
60.535236 70.037
60.973900 70.008
61.415741 69.979
61.860786 69.951
62.309055 69.924
62.760571 69.898
63.215359 69.873
63.673443 69.847
64.134850 69.820
64.599594 69.792
65.067711 69.763
65.539215 69.733
66.014137 69.701
66.492500 69.670
66.974335 69.638
67.459656 69.608
67.948494 69.578
68.440880 69.551
68.936829 69.527
69.436371 69.506
69.939537 69.488
70.446350 69.472
70.956833 69.457
71.471016 69.440
71.988922 69.420
72.510582 69.398
73.036026 69.371
73.565277 69.342
74.098358 69.310
74.635307 69.275
75.176147 69.239
75.720901 69.203
76.269608 69.168
76.822289 69.134
77.378975 69.102
77.939697 69.070
78.504478 69.038
79.073357 69.006
79.646355 68.974
80.223503 68.941
80.804832 68.909
81.390381 68.877
81.980171 68.845
82.574234 68.813
83.172600 68.782
83.775299 68.750
84.382370 68.719
84.993843 68.688
85.609741 68.657
86.230103 68.625
86.854965 68.593
87.484352 68.560
88.118301 68.527
88.756844 68.494
89.400009 68.461
90.047836 68.427
90.700363 68.393
91.357613 68.358
92.019630 68.323
92.686440 68.286
93.358086 68.249
94.034599 68.212
94.716011 68.176
95.402359 68.140
96.093681 68.105
96.790016 68.070
97.491394 68.036
98.197853 68.001
98.909431 67.965
99.626167 67.929
100.348099 67.891
101.075264 67.852
101.807693 67.813
102.545433 67.773
103.288521 67.733
104.036995 67.695
104.790894 67.659
105.550255 67.626
106.315117 67.595
107.085518 67.562
107.861504 67.527
108.643112 67.489
109.430382 67.449
110.223358 67.408
111.022079 67.368
111.826591 67.329
112.636932 67.292
113.453148 67.258
114.275276 67.225
115.103363 67.192
115.937447 67.159
116.777580 67.123
117.623802 67.084
118.476151 67.044
119.334679 67.002
120.199425 66.961
121.070442 66.921
121.947769 66.883
122.831451 66.847
123.721542 66.811
124.618080 66.776
125.521111 66.740
126.430687 66.703
127.346855 66.666
128.269669 66.629
129.199158 66.593
130.135391 66.557
131.078400 66.520
132.028244 66.480
132.984970 66.437
133.948639 66.394
134.919281 66.353
135.896957 66.313
136.881729 66.275
137.873627 66.237
138.872711 66.198
139.879044 66.154
140.892670 66.105
141.913635 66.053
142.942001 66.006
143.977814 65.970
145.021133 65.945
146.072021 65.925
147.130524 65.902
148.196686 65.874
149.270584 65.840
150.352264 65.803
151.441772 65.765
152.539185 65.728
153.644547 65.690
154.757919 65.652
155.879364 65.615
157.008926 65.577
158.146683 65.537
159.292679 65.495
160.446976 65.452
161.609634 65.410
162.780731 65.369
163.960312 65.331
165.148438 65.296
166.345169 65.261
167.550568 65.223
168.764709 65.181
169.987656 65.134
171.219452 65.085
172.460175 65.039
173.709885 64.999
174.968658 64.965
176.236557 64.932
177.513641 64.899
178.799973 64.862
180.095627 64.823
181.400681 64.782
182.715179 64.739
184.039215 64.696
185.372833 64.654
186.716125 64.615
188.069153 64.578
189.431976 64.541
190.804672 64.502
192.187317 64.455
193.579987 64.402
194.982742 64.348
196.395660 64.302
197.818817 64.268
199.252289 64.241
200.696152 64.215
202.150482 64.188
203.615341 64.157
205.090820 64.121
206.576996 64.083
208.073944 64.043
209.581726 64.002
211.100449 63.960
212.630173 63.918
214.170975 63.876
215.722946 63.834
217.286163 63.792
218.860703 63.752
220.446655 63.716
222.044098 63.684
223.653122 63.654
225.273804 63.622
226.906235 63.587
228.550491 63.550
230.206665 63.515
231.874832 63.481
233.555099 63.447
235.247543 63.413
236.952240 63.378
238.669296 63.342
240.398788 63.302
242.140823 63.259
243.895477 63.216
245.662842 63.174
247.443008 63.135
249.236084 63.096
251.042145 63.058
252.861298 63.017
254.693634 62.977
256.539246 62.938
258.398224 62.903
260.270691 62.869
262.156708 62.837
264.056396 62.803
265.969849 62.766
267.897186 62.726
269.838470 62.683
271.793823 62.639
273.763367 62.594
275.747162 62.550
277.745331 62.507
279.757996 62.468
281.785248 62.434
283.827179 62.404
285.883911 62.377
287.955536 62.351
290.042175 62.325
292.143951 62.296
294.260956 62.259
296.393280 62.219
298.541077 62.180
300.704437 62.144
302.883453 62.109
305.078278 62.073
307.289001 62.038
309.515747 62.004
311.758636 61.971
314.017761 61.936
316.293274 61.897
318.585266 61.856
320.893860 61.817
323.219177 61.782
325.561371 61.750
327.920532 61.719
330.296783 61.688
332.690247 61.657
335.101044 61.628
337.529327 61.599
339.975189 61.568
342.438782 61.532
344.920227 61.491
347.419647 61.450
349.937195 61.412
352.472992 61.379
355.027161 61.348
357.599823 61.318
360.191132 61.286
362.801239 61.251
365.430237 61.214
368.078308 61.179
370.745544 61.145
373.432129 61.110
376.138184 61.074
378.863831 61.039
381.609222 61.002
384.374512 60.964
387.159851 60.925
389.965363 60.889
392.791199 60.857
395.637512 60.831
398.504456 60.807
401.392181 60.782
404.300842 60.755
407.230560 60.726
410.181519 60.696
413.153870 60.665
416.147766 60.634
419.163330 60.602
422.200775 60.570
425.260223 60.539
428.341827 60.509
431.445770 60.481
434.572205 60.454
437.721283 60.428
440.893188 60.399
444.088074 60.368
447.306122 60.335
450.547485 60.301
453.812347 60.267
457.100861 60.234
460.413208 60.201
463.749542 60.168
467.110077 60.134
470.494934 60.100
473.904327 60.065
477.338440 60.032
480.797424 60.001
484.281494 59.971
487.790802 59.942
491.325531 59.914
494.885864 59.887
498.472015 59.861
502.084137 59.833
505.722443 59.804
509.387115 59.773
513.078369 59.739
516.796326 59.704
520.541260 59.666
524.313293 59.626
528.112671 59.581
531.939575 59.533
535.794250 59.484
539.676819 59.436
543.587524 59.392
547.526611 59.352
551.494202 59.319
555.490540 59.298
559.515869 59.289
563.570374 59.292
567.654236 59.304
571.767700 59.322
575.910950 59.340
580.084229 59.357
584.287781 59.370
588.521790 59.377
592.786438 59.380
597.082031 59.378
601.408752 59.372
605.766785 59.365
610.156433 59.358
614.577881 59.351
619.031372 59.348
623.517151 59.347
628.035400 59.348
632.586426 59.347
637.170410 59.345
641.787598 59.342
646.438232 59.337
651.122620 59.330
655.840942 59.322
660.593445 59.313
665.380371 59.303
670.201965 59.293
675.058533 59.284
679.950256 59.276
684.877441 59.266
689.840332 59.256
694.839172 59.247
699.874268 59.236
704.945862 59.226
710.054199 59.218
715.199524 59.216
720.382141 59.218
725.602356 59.218
730.860352 59.215
736.156494 59.211
741.490967 59.205
746.864136 59.199
752.276245 59.191
757.727539 59.184
763.218323 59.182
768.748901 59.185
774.319580 59.192
779.930603 59.199
785.582275 59.203
791.274902 59.207
797.008789 59.209
802.784241 59.213
808.601562 59.217
814.460999 59.224
820.362915 59.232
826.307617 59.242
832.295410 59.252
838.326538 59.261
844.401428 59.271
850.520325 59.283
856.683533 59.295
862.891418 59.309
869.144287 59.326
875.442444 59.345
881.786255 59.368
888.176025 59.392
894.612122 59.417
901.094849 59.441
907.624573 59.467
914.201599 59.495
920.826294 59.527
927.498962 59.561
934.220032 59.597
940.989746 59.634
947.808533 59.673
954.676758 59.714
961.594727 59.757
968.562866 59.802
975.581482 59.848
982.650940 59.896
989.771606 59.947
996.943909 60.000
1004.168152 60.055
1011.444763 60.112
1018.774109 60.170
1026.156616 60.229
1033.592529 60.288
1041.082397 60.350
1048.626465 60.416
1056.225220 60.485
1063.879028 60.556
1071.588379 60.628
1079.353516 60.701
1087.174927 60.775
1095.053101 60.852
1102.988281 60.929
1110.980957 61.008
1119.031616 61.087
1127.140625 61.168
1135.308350 61.250
1143.535278 61.333
1151.821777 61.416
1160.168335 61.497
1168.575439 61.579
1177.043457 61.661
1185.572754 61.744
1194.163940 61.828
1202.817383 61.913
1211.533447 61.999
1220.312744 62.086
1229.155640 62.173
1238.062622 62.259
1247.034180 62.343
1256.070679 62.426
1265.172729 62.509
1274.340698 62.594
1283.575073 62.680
1292.876343 62.769
1302.245117 62.858
1311.681763 62.947
1321.186768 63.034
1330.760620 63.121
1340.403809 63.208
1350.116943 63.297
1359.900391 63.387
1369.754761 63.480
1379.680542 63.574
1389.678223 63.669
1399.748413 63.762
1409.891602 63.853
1420.108276 63.943
1430.398926 64.034
1440.764160 64.128
1451.204590 64.225
1461.720581 64.325
1472.312866 64.425
1482.981812 64.524
1493.728149 64.623
1504.552368 64.721
1515.454956 64.813
1526.436523 64.902
1537.497681 64.997
1548.639038 65.097
1559.861084 65.197
1571.164429 65.294
1582.549683 65.391
1594.017456 65.495
1605.568359 65.603
1617.203003 65.710
1628.921875 65.814
1640.725708 65.917
1652.615112 66.017
1664.590698 66.115
1676.652954 66.213
1688.802612 66.311
1701.040405 66.411
1713.366821 66.518
1725.782593 66.629
1738.288330 66.738
1750.884644 66.846
1763.572266 66.958
1776.351807 67.070
1789.223999 67.180
1802.189453 67.292
1815.248901 67.406
1828.402954 67.520
1841.652344 67.635
1854.997681 67.750
1868.439819 67.866
1881.979248 67.982
1895.616821 68.099
1909.353271 68.217
1923.189209 68.333
1937.125488 68.447
1951.162720 68.559
1965.301636 68.670
1979.542969 68.779
1993.887573 68.884
2008.336060 68.986
2022.889282 69.086
2037.547974 69.188
2052.312988 69.287
2067.184814 69.368
2082.164551 69.432
2097.252686 69.489
2112.450195 69.550
2127.757812 69.612
2143.176514 69.674
2158.706787 69.736
2174.349609 69.792
2190.105957 69.837
2205.976318 69.871
2221.961670 69.897
2238.062988 69.916
2254.281006 69.928
2270.616455 69.934
2287.070312 69.933
2303.643311 69.926
2320.336426 69.912
2337.150635 69.893
2354.086670 69.869
2371.145264 69.840
2388.327637 69.804
2405.634521 69.763
2423.066650 69.720
2440.625244 69.673
2458.311035 69.622
2476.125000 69.569
2494.068115 69.514
2512.141113 69.457
2530.345215 69.397
2548.681152 69.335
2567.149902 69.271
2585.752441 69.205
2604.489990 69.138
2623.363281 69.071
2642.373291 69.003
2661.520996 68.936
2680.807373 68.868
2700.233643 68.800
2719.800537 68.731
2739.509277 68.660
2759.360840 68.587
2779.356201 68.513
2799.496582 68.438
2819.782959 68.364
2840.216309 68.291
2860.797607 68.217
2881.528076 68.145
2902.408936 68.073
2923.440918 68.002
2944.625488 67.932
2965.963379 67.863
2987.456055 67.797
3009.104492 67.735
3030.909668 67.676
3052.872803 67.621
3074.995117 67.567
3097.277832 67.514
3119.721924 67.462
3142.328613 67.410
3165.099121 67.359
3188.034668 67.308
3211.136475 67.257
3234.405762 67.207
3257.843506 67.159
3281.451172 67.113
3305.229980 67.068
3329.181152 67.026
3353.305664 66.986
3377.604980 66.948
3402.080566 66.913
3426.733398 66.879
3451.564941 66.847
3476.576416 66.818
3501.769043 66.791
3527.144287 66.768
3552.703369 66.749
3578.447754 66.736
3604.378662 66.729
3630.497559 66.726
3656.805664 66.727
3683.304443 66.732
3709.995117 66.740
3736.879150 66.751
3763.958008 66.764
3791.233154 66.780
3818.706055 66.797
3846.377930 66.816
3874.250488 66.838
3902.324951 66.862
3930.602783 66.889
3959.085449 66.918
3987.774658 66.948
4016.671631 66.979
4045.778076 67.009
4075.095459 67.039
4104.625488 67.069
4134.369141 67.098
4164.328613 67.126
4194.504883 67.153
4224.899902 67.178
4255.515137 67.203
4286.352539 67.227
4317.413086 67.251
4348.698730 67.274
4380.211426 67.295
4411.952148 67.312
4443.922852 67.324
4476.125488 67.330
4508.561523 67.327
4541.232422 67.315
4574.140137 67.293
4607.286133 67.262
4640.672363 67.219
4674.300781 67.165
4708.172852 67.100
4742.290039 67.024
4776.654785 66.934
4811.268555 66.832
4846.132812 66.718
4881.250000 66.592
4916.621582 66.456
4952.249512 66.312
4988.135742 66.159
5024.281738 66.001
5060.689941 65.838
5097.361816 65.672
5134.299316 65.505
5171.504395 65.339
5208.979004 65.173
5246.725586 65.009
5284.745605 64.847
5323.041016 64.688
5361.613770 64.531
5400.466309 64.375
5439.600098 64.218
5479.017578 64.057
5518.720703 63.895
5558.711426 63.735
5598.992188 63.580
5639.564941 63.433
5680.431641 63.295
5721.594238 63.167
5763.055176 63.050
5804.816406 62.944
5846.880371 62.852
5889.249512 62.773
5931.925293 62.705
5974.910645 62.645
6018.207520 62.593
6061.817871 62.546
6105.744141 62.503
6149.988770 62.464
6194.554199 62.428
6239.442383 62.393
6284.655762 62.361
6330.196777 62.332
6376.067871 62.307
6422.271484 62.286
6468.810059 62.267
6515.685547 62.253
6562.900879 62.245
6610.458496 62.246
6658.360840 62.255
6706.609863 62.277
6755.208496 62.311
6804.159668 62.362
6853.465332 62.431
6903.128418 62.522
6953.151367 62.637
7003.536621 62.780
7054.287109 62.954
7105.405273 63.165
7156.894043 63.414
7208.755859 63.702
7260.993652 64.031
7313.609863 64.401
7366.607422 64.812
7419.988770 65.258
7473.756836 65.730
7527.914551 66.219
7582.464844 66.742
7637.410645 67.349
7692.754395 68.086
7748.499023 68.953
7804.647949 69.911
7861.203613 70.902
7918.168945 71.848
7975.547363 72.650
8033.341309 73.212
8091.554199 73.456
8150.188965 73.347
8209.249023 72.904
8268.736328 72.189
8328.655273 71.287
8389.007812 70.281
8449.797852 69.244
8511.028320 68.229
8572.703125 67.269
8634.824219 66.379
8697.395508 65.561
8760.420898 64.813
8823.902344 64.132
8887.843750 63.519
8952.249023 62.972
9017.121094 62.490
9082.462891 62.069
9148.278320 61.706
9214.570312 61.399
9281.342773 61.150
9348.599609 60.958
9416.343750 60.823
9484.578125 60.746
9553.307617 60.727
9622.535156 60.767
9692.263672 60.870
9762.498047 61.038
9833.241211 61.274
9904.497070 61.577
9976.269531 61.943
10048.561523 62.363
10121.377930 62.827
10194.721680 63.312
10268.596680 63.772
10343.006836 64.127
10417.956055 64.314
10493.449219 64.369
10569.489258 64.387
10646.080078 64.366
10723.225586 64.203
10800.930664 63.822
10879.198242 63.206
10958.033203 62.377
11037.439453 61.381
11117.420898 60.268
11197.982422 59.086
11279.127930 57.876
11360.861328 56.682
11443.186523 55.542
11526.108398 54.471
11609.630859 53.480
11693.758789 52.583
11778.497070 51.785
11863.848633 51.084
11949.819336 50.487
12036.413086 50.012
12123.633789 49.684
12211.486328 49.489
12299.975586 49.373
12389.106445 49.290
12478.882812 49.216
12569.309570 49.141
12660.391602 49.069
12752.133789 49.002
12844.541016 48.917
12937.618164 48.789
13031.369141 48.618
13125.799805 48.420
13220.915039 48.195
13316.719727 47.931
13413.217773 47.612
13510.415039 47.235
13608.317383 46.799
13706.928711 46.295
13806.254883 45.745
13906.300781 45.227
14007.071289 44.833
14108.572266 44.608
14210.808594 44.526
14313.786133 44.544
14417.509766 44.675
14521.985352 45.073
14627.217773 45.871
14733.212891 46.873
14839.975586 47.898
14947.511719 48.940
15055.827148 50.056
15164.927734 51.260
15274.819336 52.443
15385.506836 53.622
15496.996094 54.850
15609.293945 56.084
15722.405273 57.312
15836.335938 58.525
15951.092773 59.652
16066.680664 60.574
16183.106445 61.165
16300.375977 61.309
16418.496094 60.933
16537.470703 60.029
16657.308594 58.663
16778.013672 56.966
16899.593750 55.148
17022.054688 53.420
17145.404297 51.869
17269.646484 50.576
17394.789062 49.601
17520.839844 48.926
17647.802734 48.491
17775.685547 48.260
17904.496094 48.209
18034.240234 48.318
18164.923828 48.570
18296.554688 48.930
18429.138672 49.331
18562.683594 49.668
18697.197266 49.807
18832.685547 49.619
18969.154297 49.019
19106.613281 47.988
19245.068359 46.566
19384.525391 44.843
19524.994141 42.942
19666.480469 40.990
19808.992188 39.200
19952.537109 38.305
