* Measurement data measured by REW V5.20.4
* Source: Trace Arithmetic result A * B
* Format: Trace Arithmetic result A * B
* Dated: Jul 10, 2022 6:49:26 PM
* REW Settings:
*  C-weighting compensation: Off
*  Target level: 75.0 dB
* Note: Trace Arithmetic A times B A = ESX L NC B = Aster Correction Averaged Fin
* Measurement: ESX L
* Smoothing: 1/48 octave
* Frequency Step: 96 ppo
* Start Frequency: 20.0 Hz
*
* Freq(Hz) SPL(dB)
20.055882 70.634
20.201214 70.919
20.347601 70.982
20.495049 71.001
20.643564 71.026
20.793156 71.038
20.943832 71.052
21.095600 71.064
21.248468 71.076
21.402443 71.087
21.557533 71.096
21.713749 71.102
21.871096 71.107
22.029583 71.109
22.189219 71.111
22.350010 71.111
22.511967 71.111
22.675098 71.109
22.839411 71.108
23.004915 71.105
23.171618 71.104
23.339529 71.103
23.508657 71.102
23.679010 71.100
23.850597 71.098
24.023428 71.095
24.197512 71.090
24.372856 71.086
24.549473 71.081
24.727369 71.075
24.906553 71.069
25.087036 71.064
25.268827 71.058
25.451937 71.053
25.636372 71.047
25.822144 71.042
26.009262 71.038
26.197737 71.033
26.387577 71.030
26.578793 71.026
26.771393 71.024
26.965389 71.022
27.160791 71.020
27.357609 71.018
27.555853 71.016
27.755533 71.014
27.956661 71.012
28.159246 71.011
28.363300 71.011
28.568832 71.011
28.775854 71.012
28.984375 71.012
29.194408 71.011
29.405964 71.010
29.619051 71.008
29.833683 71.006
30.049870 71.003
30.267624 70.999
30.486956 70.996
30.707876 70.992
30.930399 70.988
31.154533 70.985
31.380293 70.982
31.607687 70.979
31.836729 70.975
32.067432 70.970
32.299805 70.964
32.533863 70.955
32.769615 70.946
33.007076 70.935
33.246258 70.924
33.487175 70.913
33.729836 70.901
33.974255 70.888
34.220448 70.875
34.468422 70.861
34.718193 70.847
34.969776 70.832
35.223183 70.818
35.478424 70.805
35.735516 70.792
35.994469 70.781
36.255299 70.769
36.518021 70.758
36.782646 70.747
37.049187 70.734
37.317661 70.722
37.588081 70.709
37.860458 70.695
38.134811 70.680
38.411152 70.664
38.689495 70.647
38.969856 70.629
39.252247 70.610
39.536686 70.591
39.823185 70.571
40.111759 70.550
40.402424 70.529
40.695198 70.509
40.990093 70.488
41.287125 70.468
41.586308 70.449
41.887657 70.430
42.191193 70.411
42.496929 70.394
42.804878 70.376
43.115059 70.360
43.427490 70.343
43.742184 70.327
44.059158 70.311
44.378429 70.294
44.700012 70.278
45.023926 70.261
45.350189 70.244
45.678814 70.227
46.009823 70.208
46.343227 70.189
46.679050 70.168
47.017307 70.147
47.358013 70.125
47.701187 70.102
48.046848 70.080
48.395016 70.056
48.745705 70.033
49.098938 70.010
49.454731 69.988
49.813099 69.965
50.174065 69.943
50.537647 69.921
50.903862 69.899
51.272732 69.876
51.644276 69.852
52.018513 69.827
52.395462 69.800
52.775143 69.770
53.157574 69.738
53.542774 69.702
53.930767 69.664
54.321571 69.623
54.715206 69.581
55.111694 69.540
55.511055 69.502
55.913311 69.469
56.318481 69.442
56.726589 69.423
57.137653 69.409
57.551697 69.401
57.968739 69.395
58.388805 69.389
58.811916 69.382
59.238091 69.373
59.667355 69.361
60.099728 69.346
60.535236 69.328
60.973900 69.310
61.415741 69.290
61.860786 69.270
62.309055 69.249
62.760571 69.227
63.215359 69.204
63.673443 69.179
64.134850 69.153
64.599594 69.126
65.067711 69.099
65.539215 69.072
66.014137 69.047
66.492500 69.023
66.974335 69.000
67.459656 68.978
67.948494 68.955
68.440880 68.931
68.936829 68.905
69.436371 68.878
69.939537 68.850
70.446350 68.822
70.956833 68.796
71.471016 68.770
71.988922 68.745
72.510582 68.719
73.036026 68.689
73.565277 68.656
74.098358 68.620
74.635307 68.580
75.176147 68.540
75.720901 68.501
76.269608 68.463
76.822289 68.426
77.378975 68.391
77.939697 68.358
78.504478 68.326
79.073357 68.295
79.646355 68.266
80.223503 68.237
80.804832 68.209
81.390381 68.180
81.980171 68.151
82.574234 68.120
83.172600 68.087
83.775299 68.053
84.382370 68.017
84.993843 67.981
85.609741 67.944
86.230103 67.909
86.854965 67.874
87.484352 67.841
88.118301 67.809
88.756844 67.777
89.400009 67.744
90.047836 67.711
90.700363 67.679
91.357613 67.646
92.019630 67.614
92.686440 67.582
93.358086 67.549
94.034599 67.516
94.716011 67.481
95.402359 67.446
96.093681 67.412
96.790016 67.377
97.491394 67.343
98.197853 67.308
98.909431 67.273
99.626167 67.238
100.348099 67.202
101.075264 67.165
101.807693 67.129
102.545433 67.093
103.288521 67.058
104.036995 67.026
104.790894 66.998
105.550255 66.973
106.315117 66.950
107.085518 66.927
107.861504 66.900
108.643112 66.865
109.430382 66.824
110.223358 66.776
111.022079 66.725
111.826591 66.673
112.636932 66.623
113.453148 66.578
114.275276 66.539
115.103363 66.504
115.937447 66.469
116.777580 66.434
117.623802 66.396
118.476151 66.357
119.334679 66.318
120.199425 66.282
121.070442 66.248
121.947769 66.215
122.831451 66.182
123.721542 66.148
124.618080 66.113
125.521111 66.077
126.430687 66.040
127.346855 66.000
128.269669 65.960
129.199158 65.919
130.135391 65.879
131.078400 65.840
132.028244 65.804
132.984970 65.767
133.948639 65.732
134.919281 65.700
135.896957 65.669
136.881729 65.639
137.873627 65.604
138.872711 65.566
139.879044 65.524
140.892670 65.484
141.913635 65.446
142.942001 65.408
143.977814 65.369
145.021133 65.326
146.072021 65.281
147.130524 65.237
148.196686 65.196
149.270584 65.160
150.352264 65.126
151.441772 65.092
152.539185 65.057
153.644547 65.021
154.757919 64.984
155.879364 64.946
157.008926 64.906
158.146683 64.866
159.292679 64.829
160.446976 64.796
161.609634 64.766
162.780731 64.737
163.960312 64.703
165.148438 64.663
166.345169 64.616
167.550568 64.569
168.764709 64.527
169.987656 64.491
171.219452 64.458
172.460175 64.427
173.709885 64.393
174.968658 64.357
176.236557 64.319
177.513641 64.280
178.799973 64.241
180.095627 64.200
181.400681 64.159
182.715179 64.117
184.039215 64.076
185.372833 64.036
186.716125 63.997
188.069153 63.958
189.431976 63.917
190.804672 63.875
192.187317 63.831
193.579987 63.790
194.982742 63.755
196.395660 63.724
197.818817 63.693
199.252289 63.659
200.696152 63.621
202.150482 63.580
203.615341 63.540
205.090820 63.500
206.576996 63.461
208.073944 63.422
209.581726 63.383
211.100449 63.343
212.630173 63.303
214.170975 63.264
215.722946 63.225
217.286163 63.189
218.860703 63.155
220.446655 63.124
222.044098 63.093
223.653122 63.060
225.273804 63.024
226.906235 62.988
228.550491 62.950
230.206665 62.913
231.874832 62.876
233.555099 62.839
235.247543 62.804
236.952240 62.770
238.669296 62.736
240.398788 62.703
242.140823 62.671
243.895477 62.638
245.662842 62.604
247.443008 62.567
249.236084 62.528
251.042145 62.489
252.861298 62.451
254.693634 62.415
256.539246 62.379
258.398224 62.344
260.270691 62.309
262.156708 62.274
264.056396 62.239
265.969849 62.204
267.897186 62.169
269.838470 62.135
271.793823 62.103
273.763367 62.071
275.747162 62.040
277.745331 62.007
279.757996 61.972
281.785248 61.935
283.827179 61.896
285.883911 61.858
287.955536 61.821
290.042175 61.785
292.143951 61.751
294.260956 61.718
296.393280 61.686
298.541077 61.654
300.704437 61.621
302.883453 61.588
305.078278 61.556
307.289001 61.524
309.515747 61.492
311.758636 61.459
314.017761 61.427
316.293274 61.395
318.585266 61.362
320.893860 61.330
323.219177 61.297
325.561371 61.264
327.920532 61.231
330.296783 61.198
332.690247 61.164
335.101044 61.130
337.529327 61.095
339.975189 61.061
342.438782 61.031
344.920227 61.006
347.419647 60.982
349.937195 60.953
352.472992 60.921
355.027161 60.888
357.599823 60.856
360.191132 60.824
362.801239 60.794
365.430237 60.765
368.078308 60.736
370.745544 60.708
373.432129 60.679
376.138184 60.650
378.863831 60.620
381.609222 60.589
384.374512 60.558
387.159851 60.528
389.965363 60.499
392.791199 60.470
395.637512 60.442
398.504456 60.415
401.392181 60.388
404.300842 60.362
407.230560 60.335
410.181519 60.308
413.153870 60.281
416.147766 60.255
419.163330 60.227
422.200775 60.199
425.260223 60.172
428.341827 60.146
431.445770 60.120
434.572205 60.095
437.721283 60.069
440.893188 60.042
444.088074 60.016
447.306122 59.988
450.547485 59.962
453.812347 59.935
457.100861 59.909
460.413208 59.882
463.749542 59.853
467.110077 59.823
470.494934 59.793
473.904327 59.763
477.338440 59.735
480.797424 59.711
484.281494 59.691
487.790802 59.671
491.325531 59.648
494.885864 59.624
498.472015 59.598
502.084137 59.571
505.722443 59.543
509.387115 59.513
513.078369 59.481
516.796326 59.447
520.541260 59.416
524.313293 59.391
528.112671 59.370
531.939575 59.348
535.794250 59.318
539.676819 59.278
543.587524 59.232
547.526611 59.192
551.494202 59.160
555.490540 59.124
559.515869 59.077
563.570374 59.027
567.654236 58.983
571.767700 58.948
575.910950 58.924
580.084229 58.914
584.287781 58.919
588.521790 58.940
592.786438 58.975
597.082031 59.013
601.408752 59.044
605.766785 59.059
610.156433 59.064
614.577881 59.067
619.031372 59.077
623.517151 59.094
628.035400 59.112
632.586426 59.123
637.170410 59.126
641.787598 59.117
646.438232 59.098
651.122620 59.073
655.840942 59.056
660.593445 59.053
665.380371 59.063
670.201965 59.073
675.058533 59.079
679.950256 59.079
684.877441 59.077
689.840332 59.072
694.839172 59.067
699.874268 59.061
704.945862 59.057
710.054199 59.054
715.199524 59.053
720.382141 59.054
725.602356 59.056
730.860352 59.057
736.156494 59.057
741.490967 59.058
746.864136 59.060
752.276245 59.064
757.727539 59.070
763.218323 59.076
768.748901 59.082
774.319580 59.088
779.930603 59.094
785.582275 59.098
791.274902 59.102
797.008789 59.107
802.784241 59.115
808.601562 59.124
814.460999 59.135
820.362915 59.146
826.307617 59.157
832.295410 59.170
838.326538 59.184
844.401428 59.200
850.520325 59.216
856.683533 59.233
862.891418 59.251
869.144287 59.272
875.442444 59.295
881.786255 59.318
888.176025 59.344
894.612122 59.373
901.094849 59.403
907.624573 59.435
914.201599 59.468
920.826294 59.502
927.498962 59.538
934.220032 59.575
940.989746 59.615
947.808533 59.656
954.676758 59.701
961.594727 59.747
968.562866 59.794
975.581482 59.843
982.650940 59.892
989.771606 59.945
996.943909 60.000
1004.168152 60.058
1011.444763 60.119
1018.774109 60.181
1026.156616 60.244
1033.592529 60.307
1041.082397 60.372
1048.626465 60.439
1056.225220 60.509
1063.879028 60.583
1071.588379 60.658
1079.353516 60.735
1087.174927 60.813
1095.053101 60.893
1102.988281 60.974
1110.980957 61.056
1119.031616 61.139
1127.140625 61.223
1135.308350 61.308
1143.535278 61.393
1151.821777 61.479
1160.168335 61.564
1168.575439 61.648
1177.043457 61.734
1185.572754 61.820
1194.163940 61.907
1202.817383 61.993
1211.533447 62.080
1220.312744 62.167
1229.155640 62.256
1238.062622 62.345
1247.034180 62.434
1256.070679 62.522
1265.172729 62.611
1274.340698 62.699
1283.575073 62.788
1292.876343 62.877
1302.245117 62.966
1311.681763 63.056
1321.186768 63.147
1330.760620 63.237
1340.403809 63.327
1350.116943 63.418
1359.900391 63.510
1369.754761 63.603
1379.680542 63.698
1389.678223 63.793
1399.748413 63.887
1409.891602 63.981
1420.108276 64.076
1430.398926 64.173
1440.764160 64.271
1451.204590 64.369
1461.720581 64.468
1472.312866 64.568
1482.981812 64.668
1493.728149 64.768
1504.552368 64.868
1515.454956 64.968
1526.436523 65.068
1537.497681 65.170
1548.639038 65.271
1559.861084 65.372
1571.164429 65.471
1582.549683 65.571
1594.017456 65.671
1605.568359 65.770
1617.203003 65.870
1628.921875 65.969
1640.725708 66.069
1652.615112 66.172
1664.590698 66.275
1676.652954 66.379
1688.802612 66.484
1701.040405 66.588
1713.366821 66.693
1725.782593 66.798
1738.288330 66.902
1750.884644 67.006
1763.572266 67.111
1776.351807 67.220
1789.223999 67.332
1802.189453 67.447
1815.248901 67.564
1828.402954 67.681
1841.652344 67.798
1854.997681 67.913
1868.439819 68.026
1881.979248 68.139
1895.616821 68.251
1909.353271 68.364
1923.189209 68.476
1937.125488 68.586
1951.162720 68.693
1965.301636 68.797
1979.542969 68.898
1993.887573 68.998
2008.336060 69.098
2022.889282 69.194
2037.547974 69.282
2052.312988 69.364
2067.184814 69.440
2082.164551 69.507
2097.252686 69.567
2112.450195 69.625
2127.757812 69.681
2143.176514 69.736
2158.706787 69.789
2174.349609 69.836
2190.105957 69.876
2205.976318 69.906
2221.961670 69.929
2238.062988 69.944
2254.281006 69.952
2270.616455 69.950
2287.070312 69.940
2303.643311 69.923
2320.336426 69.903
2337.150635 69.877
2354.086670 69.846
2371.145264 69.810
2388.327637 69.771
2405.634521 69.728
2423.066650 69.682
2440.625244 69.633
2458.311035 69.582
2476.125000 69.528
2494.068115 69.470
2512.141113 69.410
2530.345215 69.349
2548.681152 69.288
2567.149902 69.226
2585.752441 69.163
2604.489990 69.099
2623.363281 69.034
2642.373291 68.970
2661.520996 68.907
2680.807373 68.844
2700.233643 68.780
2719.800537 68.716
2739.509277 68.650
2759.360840 68.583
2779.356201 68.515
2799.496582 68.447
2819.782959 68.380
2840.216309 68.313
2860.797607 68.246
2881.528076 68.181
2902.408936 68.116
2923.440918 68.051
2944.625488 67.988
2965.963379 67.924
2987.456055 67.863
3009.104492 67.804
3030.909668 67.749
3052.872803 67.697
3074.995117 67.648
3097.277832 67.602
3119.721924 67.558
3142.328613 67.516
3165.099121 67.476
3188.034668 67.438
3211.136475 67.402
3234.405762 67.368
3257.843506 67.335
3281.451172 67.305
3305.229980 67.277
3329.181152 67.251
3353.305664 67.227
3377.604980 67.205
3402.080566 67.184
3426.733398 67.164
3451.564941 67.145
3476.576416 67.127
3501.769043 67.112
3527.144287 67.100
3552.703369 67.093
3578.447754 67.091
3604.378662 67.095
3630.497559 67.103
3656.805664 67.114
3683.304443 67.130
3709.995117 67.148
3736.879150 67.168
3763.958008 67.189
3791.233154 67.213
3818.706055 67.237
3846.377930 67.263
3874.250488 67.290
3902.324951 67.319
3930.602783 67.350
3959.085449 67.383
3987.774658 67.418
4016.671631 67.453
4045.778076 67.487
4075.095459 67.520
4104.625488 67.554
4134.369141 67.586
4164.328613 67.616
4194.504883 67.643
4224.899902 67.665
4255.515137 67.684
4286.352539 67.698
4317.413086 67.708
4348.698730 67.715
4380.211426 67.717
4411.952148 67.712
4443.922852 67.698
4476.125488 67.674
4508.561523 67.638
4541.232422 67.592
4574.140137 67.534
4607.286133 67.465
4640.672363 67.385
4674.300781 67.293
4708.172852 67.189
4742.290039 67.071
4776.654785 66.942
4811.268555 66.801
4846.132812 66.651
4881.250000 66.492
4916.621582 66.325
4952.249512 66.150
4988.135742 65.970
5024.281738 65.786
5060.689941 65.600
5097.361816 65.415
5134.299316 65.234
5171.504395 65.056
5208.979004 64.882
5246.725586 64.712
5284.745605 64.548
5323.041016 64.389
5361.613770 64.233
5400.466309 64.081
5439.600098 63.928
5479.017578 63.774
5518.720703 63.621
5558.711426 63.473
5598.992188 63.331
5639.564941 63.195
5680.431641 63.066
5721.594238 62.945
5763.055176 62.832
5804.816406 62.729
5846.880371 62.638
5889.249512 62.559
5931.925293 62.490
5974.910645 62.429
6018.207520 62.375
6061.817871 62.327
6105.744141 62.285
6149.988770 62.248
6194.554199 62.215
6239.442383 62.185
6284.655762 62.156
6330.196777 62.130
6376.067871 62.106
6422.271484 62.085
6468.810059 62.068
6515.685547 62.056
6562.900879 62.050
6610.458496 62.050
6658.360840 62.058
6706.609863 62.074
6755.208496 62.102
6804.159668 62.143
6853.465332 62.199
6903.128418 62.270
6953.151367 62.358
7003.536621 62.463
7054.287109 62.591
7105.405273 62.749
7156.894043 62.951
7208.755859 63.214
7260.993652 63.555
7313.609863 63.978
7366.607422 64.463
7419.988770 64.974
7473.756836 65.495
7527.914551 66.038
7582.464844 66.630
7637.410645 67.294
7692.754395 68.046
7748.499023 68.882
7804.647949 69.791
7861.203613 70.748
7918.168945 71.704
7975.547363 72.584
8033.341309 73.297
8091.554199 73.753
8150.188965 73.889
8209.249023 73.688
8268.736328 73.177
8328.655273 72.423
8389.007812 71.505
8449.797852 70.506
8511.028320 69.493
8572.703125 68.511
8634.824219 67.586
8697.395508 66.728
8760.420898 65.941
8823.902344 65.218
8887.843750 64.555
8952.249023 63.947
9017.121094 63.387
9082.462891 62.871
9148.278320 62.401
9214.570312 61.985
9281.342773 61.636
9348.599609 61.364
9416.343750 61.174
9484.578125 61.063
9553.307617 61.025
9622.535156 61.054
9692.263672 61.149
9762.498047 61.311
9833.241211 61.532
9904.497070 61.784
9976.269531 62.023
10048.561523 62.254
10121.377930 62.573
10194.721680 63.044
10268.596680 63.615
10343.006836 64.205
10417.956055 64.767
10493.449219 65.266
10569.489258 65.653
10646.080078 65.875
10723.225586 65.882
10800.930664 65.629
10879.198242 65.094
10958.033203 64.284
11037.439453 63.238
11117.420898 62.019
11197.982422 60.687
11279.127930 59.304
11360.861328 57.934
11443.186523 56.626
11526.108398 55.409
11609.630859 54.298
11693.758789 53.306
11778.497070 52.433
11863.848633 51.674
11949.819336 51.019
12036.413086 50.475
12123.633789 50.057
12211.486328 49.747
12299.975586 49.501
12389.106445 49.281
12478.882812 49.075
12569.309570 48.879
12660.391602 48.701
12752.133789 48.542
12844.541016 48.378
12937.618164 48.182
13031.369141 47.953
13125.799805 47.703
13220.915039 47.434
13316.719727 47.132
13413.217773 46.785
13510.415039 46.390
13608.317383 45.950
13706.928711 45.455
13806.254883 44.921
13906.300781 44.415
14007.071289 44.019
14108.572266 43.777
14210.808594 43.671
14313.786133 43.660
14417.509766 43.754
14521.985352 44.093
14627.217773 44.812
14733.212891 45.738
14839.975586 46.714
14947.511719 47.745
15055.827148 48.882
15164.927734 50.124
15274.819336 51.349
15385.506836 52.576
15496.996094 53.851
15609.293945 55.136
15722.405273 56.419
15836.335938 57.693
15951.092773 58.881
16066.680664 59.858
16183.106445 60.490
16300.375977 60.656
16418.496094 60.281
16537.470703 59.365
16657.308594 57.986
16778.013672 56.283
16899.593750 54.474
17022.054688 52.770
17145.404297 51.254
17269.646484 50.002
17394.789062 49.070
17520.839844 48.432
17647.802734 48.032
17775.685547 47.833
17904.496094 47.810
18034.240234 47.942
18164.923828 48.211
18296.554688 48.592
18429.138672 49.040
18562.683594 49.481
18697.197266 49.792
18832.685547 49.815
18969.154297 49.407
19106.613281 48.490
19245.068359 47.060
19384.525391 45.186
19524.994141 42.976
19666.480469 40.556
19808.992188 38.182
19952.537109 36.911
