* Measurement data measured by REW V5.20.4
* Source: Trace Arithmetic result A * B
* Format: Trace Arithmetic result A * B
* Dated: Apr 19, 2022 8:10:50 AM
* REW Settings:
*  C-weighting compensation: Off
*  Target level: 75.0 dB
* Note: Trace Arithmetic A times B A = Correction File V3 B = Apr 19
* Measurement: A times B
* Smoothing: 1/48 octave
* Frequency Step: 96 ppo
* Start Frequency: 20.0 Hz
*
* Freq(Hz) SPL(dB)
20.017771 104.595
20.162828 108.671
20.308937 110.075
20.456104 110.007
20.604338 110.075
20.753645 110.082
20.904034 110.091
21.055513 110.095
21.208090 110.094
21.361773 110.087
21.516569 110.078
21.672487 110.068
21.829535 110.057
21.987720 110.047
22.147053 110.038
22.307539 110.029
22.469189 110.022
22.632010 110.017
22.796011 110.013
22.961201 110.010
23.127586 110.007
23.295177 110.003
23.463984 109.998
23.634014 109.992
23.805277 109.985
23.977779 109.977
24.151533 109.967
24.326546 109.957
24.502827 109.945
24.680384 109.933
24.859228 109.920
25.039368 109.908
25.220814 109.895
25.403574 109.882
25.587658 109.869
25.773077 109.855
25.959839 109.842
26.147955 109.828
26.337433 109.815
26.528284 109.802
26.720518 109.790
26.914146 109.778
27.109177 109.766
27.305620 109.753
27.503489 109.740
27.702789 109.725
27.903536 109.710
28.105736 109.695
28.309402 109.679
28.514544 109.663
28.721172 109.645
28.929298 109.627
29.138931 109.607
29.350084 109.585
29.562767 109.562
29.776991 109.538
29.992767 109.512
30.210108 109.487
30.429022 109.462
30.649523 109.436
30.871622 109.410
31.095331 109.384
31.320662 109.357
31.547625 109.330
31.776232 109.302
32.006496 109.274
32.238430 109.246
32.472042 109.219
32.707348 109.192
32.944359 109.165
33.183086 109.139
33.423546 109.113
33.665745 109.088
33.909702 109.063
34.155426 109.038
34.402931 109.011
34.652229 108.983
34.903332 108.952
35.156254 108.920
35.411011 108.885
35.667614 108.848
35.926075 108.810
36.186409 108.769
36.448631 108.727
36.712753 108.683
36.978790 108.638
37.246754 108.593
37.516659 108.549
37.788521 108.507
38.062351 108.466
38.338165 108.427
38.615978 108.390
38.895805 108.355
39.177662 108.320
39.461559 108.286
39.747513 108.252
40.035542 108.218
40.325657 108.185
40.617874 108.152
40.912209 108.121
41.208675 108.091
41.507290 108.062
41.808067 108.033
42.111027 108.003
42.416180 107.973
42.723545 107.943
43.033138 107.912
43.344975 107.881
43.659069 107.848
43.975441 107.814
44.294106 107.779
44.615078 107.743
44.938377 107.707
45.264019 107.671
45.592022 107.634
45.922401 107.597
46.255173 107.559
46.590355 107.520
46.927967 107.482
47.268028 107.444
47.610554 107.407
47.955559 107.371
48.303066 107.336
48.653091 107.300
49.005653 107.264
49.360767 107.227
49.718456 107.188
50.078735 107.145
50.441628 107.099
50.807148 107.050
51.175316 106.997
51.546154 106.941
51.919678 106.885
52.295910 106.828
52.674866 106.773
53.056568 106.719
53.441036 106.670
53.828293 106.623
54.218353 106.580
54.611240 106.540
55.006977 106.502
55.405579 106.466
55.807072 106.432
56.211472 106.398
56.618805 106.363
57.029087 106.328
57.442345 106.291
57.858597 106.251
58.277863 106.210
58.700169 106.165
59.125534 106.117
59.553982 106.067
59.985535 106.013
60.420216 105.957
60.858044 105.899
61.299046 105.840
61.743244 105.780
62.190662 105.721
62.641323 105.664
63.095249 105.610
63.552464 105.559
64.012993 105.510
64.476860 105.463
64.944084 105.415
65.414696 105.367
65.888718 105.317
66.366173 105.267
66.847092 105.216
67.331490 105.165
67.819405 105.116
68.310852 105.070
68.805862 105.026
69.304459 104.985
69.806664 104.945
70.312508 104.905
70.822021 104.864
71.335228 104.820
71.852150 104.773
72.372818 104.722
72.897263 104.669
73.425507 104.616
73.957581 104.561
74.493507 104.508
75.033318 104.454
75.577042 104.400
76.124702 104.346
76.676331 104.293
77.231956 104.242
77.791611 104.195
78.355324 104.152
78.923119 104.113
79.495026 104.075
80.071083 104.033
80.651314 103.986
81.235748 103.931
81.824417 103.870
82.417351 103.807
83.014580 103.747
83.616135 103.694
84.222054 103.649
84.832359 103.607
85.447090 103.567
86.066277 103.523
86.689949 103.475
87.318138 103.423
87.950882 103.368
88.588211 103.314
89.230156 103.262
89.876755 103.211
90.528038 103.162
91.184044 103.111
91.844803 103.060
92.510345 103.006
93.180710 102.952
93.855934 102.897
94.536057 102.843
95.221107 102.787
95.911118 102.730
96.606133 102.671
97.306183 102.612
98.011307 102.553
98.721535 102.497
99.436913 102.444
100.157471 102.394
100.883255 102.343
101.614296 102.292
102.350632 102.238
103.092308 102.182
103.839355 102.125
104.591820 102.069
105.349731 102.014
106.113136 101.961
106.882072 101.909
107.656586 101.860
108.436707 101.812
109.222481 101.764
110.013954 101.715
110.811157 101.665
111.614143 101.614
112.422943 101.562
113.237610 101.510
114.058174 101.462
114.884689 101.417
115.717194 101.372
116.555725 101.324
117.400337 101.272
118.251068 101.218
119.107964 101.163
119.971069 101.110
120.840431 101.060
121.716087 101.012
122.598091 100.964
123.486488 100.916
124.381325 100.868
125.282646 100.819
126.190498 100.769
127.104927 100.717
128.025986 100.666
128.953720 100.616
129.888168 100.567
130.829391 100.519
131.777435 100.471
132.732346 100.422
133.694183 100.372
134.662979 100.320
135.638809 100.268
136.621704 100.216
137.611725 100.164
138.608917 100.113
139.613327 100.061
140.625015 100.010
141.644043 99.959
142.670456 99.910
143.704300 99.863
144.745636 99.816
145.794525 99.769
146.851013 99.719
147.915161 99.669
148.987015 99.617
150.066635 99.567
151.154083 99.517
152.249405 99.468
153.352661 99.419
154.463913 99.373
155.583221 99.329
156.710648 99.284
157.846237 99.238
158.990051 99.187
160.142166 99.135
161.302628 99.083
162.471497 99.034
163.648834 98.989
164.834702 98.946
166.029160 98.902
167.232269 98.857
168.444107 98.809
169.664719 98.759
170.894180 98.711
172.132553 98.663
173.379898 98.618
174.636276 98.574
175.901764 98.529
177.176422 98.484
178.460312 98.440
179.753510 98.397
181.056076 98.354
182.368088 98.308
183.689606 98.260
185.020691 98.212
186.361420 98.165
187.711868 98.119
189.072113 98.076
190.442215 98.035
191.822235 97.998
193.212265 97.963
194.612366 97.931
196.022614 97.897
197.443069 97.863
198.873825 97.829
200.314941 97.794
201.766510 97.757
203.228592 97.718
204.701263 97.678
206.184616 97.640
207.678711 97.604
209.183640 97.569
210.699463 97.535
212.226273 97.501
213.764145 97.468
215.313171 97.435
216.873413 97.400
218.444962 97.364
220.027908 97.328
221.622314 97.292
223.228287 97.257
224.845886 97.222
226.475220 97.186
228.116348 97.151
229.769379 97.115
231.434387 97.079
233.111450 97.043
234.800674 97.007
236.502136 96.970
238.215927 96.928
239.942139 96.884
241.680862 96.841
243.432175 96.802
245.196182 96.766
246.972977 96.734
248.762650 96.702
250.565292 96.668
252.380997 96.631
254.209854 96.594
256.051971 96.556
257.907440 96.518
259.776337 96.481
261.658783 96.446
263.554871 96.413
265.464691 96.381
267.388367 96.350
269.325958 96.319
271.277618 96.288
273.243408 96.256
275.223450 96.223
277.217834 96.191
279.226654 96.159
281.250031 96.127
283.288086 96.094
285.340912 96.061
287.408600 96.029
289.491272 95.998
291.589050 95.967
293.702026 95.936
295.830322 95.904
297.974030 95.872
300.133270 95.841
302.308167 95.810
304.498810 95.781
306.705322 95.753
308.927826 95.723
311.166443 95.690
313.421295 95.659
315.692474 95.631
317.980103 95.606
320.284332 95.579
322.605255 95.552
324.942993 95.524
327.297668 95.498
329.669403 95.475
332.058319 95.456
334.464539 95.438
336.888214 95.422
339.329437 95.406
341.788361 95.389
344.265106 95.372
346.759796 95.356
349.272552 95.339
351.803528 95.319
354.352844 95.297
356.920624 95.273
359.507019 95.248
362.112152 95.224
364.736176 95.204
367.379211 95.184
370.041382 95.160
372.722839 95.132
375.423737 95.102
378.144226 95.070
380.884430 95.040
383.644470 95.013
386.424530 94.987
389.224731 94.960
392.045227 94.931
394.886139 94.902
397.747650 94.876
400.629883 94.853
403.533020 94.828
406.457184 94.801
409.402527 94.776
412.369232 94.754
415.357422 94.734
418.367279 94.716
421.398926 94.698
424.452545 94.680
427.528290 94.662
430.626343 94.644
433.746826 94.625
436.889923 94.606
440.055817 94.588
443.244629 94.575
446.456573 94.564
449.691772 94.553
452.950439 94.541
456.232697 94.529
459.538757 94.516
462.868774 94.502
466.222900 94.489
469.601349 94.474
473.004272 94.457
476.431854 94.441
479.884277 94.429
483.361725 94.420
486.864349 94.412
490.392365 94.403
493.945953 94.392
497.525299 94.378
501.130585 94.363
504.761993 94.349
508.419708 94.335
512.103943 94.321
515.814880 94.309
519.552673 94.296
523.317566 94.284
527.109741 94.274
530.929382 94.263
534.776733 94.252
538.651917 94.245
542.555237 94.241
546.486816 94.237
550.446899 94.233
554.435669 94.230
558.453308 94.227
562.500061 94.221
566.576172 94.210
570.681824 94.194
574.817200 94.175
578.982544 94.158
583.178101 94.145
587.404053 94.137
591.660645 94.134
595.948059 94.134
600.266541 94.136
604.616333 94.137
608.997620 94.135
613.410645 94.133
617.855652 94.132
622.332886 94.131
626.842590 94.129
631.384949 94.128
635.960205 94.125
640.568665 94.120
645.210510 94.113
649.885986 94.108
654.595337 94.104
659.338806 94.104
664.116638 94.107
668.929077 94.111
673.776428 94.114
678.658875 94.115
683.576721 94.114
688.530212 94.112
693.519592 94.109
698.545105 94.108
703.607056 94.109
708.705688 94.110
713.841248 94.114
719.014038 94.122
724.224304 94.131
729.472351 94.142
734.758423 94.152
740.082764 94.162
745.445679 94.173
750.847473 94.185
756.288452 94.199
761.768860 94.215
767.288940 94.235
772.849060 94.258
778.449463 94.284
784.090454 94.312
789.772278 94.340
795.495300 94.362
801.259766 94.372
807.066040 94.363
812.914368 94.335
818.805054 94.296
824.738464 94.257
830.714844 94.226
836.734558 94.208
842.797852 94.202
848.905090 94.205
855.056580 94.214
861.252686 94.224
867.493652 94.236
873.779846 94.250
880.111633 94.265
886.489258 94.283
892.913147 94.303
899.383545 94.323
905.900879 94.343
912.465393 94.366
919.077515 94.393
925.737549 94.426
932.445801 94.462
939.202698 94.500
946.008545 94.539
952.863708 94.581
959.768555 94.627
966.723450 94.678
973.728699 94.734
980.784729 94.795
987.891907 94.860
995.050598 94.929
1002.261169 95.000
1009.523987 95.076
1016.839417 95.156
1024.207886 95.239
1031.629761 95.321
1039.105347 95.405
1046.635132 95.491
1054.219482 95.581
1061.858765 95.673
1069.553467 95.769
1077.303833 95.867
1085.110474 95.967
1092.973633 96.069
1100.893799 96.170
1108.871338 96.275
1116.906616 96.382
1125.000122 96.487
1133.152344 96.591
1141.363647 96.695
1149.634399 96.801
1157.965088 96.910
1166.356201 97.019
1174.808105 97.127
1183.321289 97.238
1191.896118 97.349
1200.533081 97.461
1209.232666 97.571
1217.995239 97.678
1226.821289 97.785
1235.711304 97.892
1244.665771 98.001
1253.685181 98.108
1262.769897 98.212
1271.920410 98.313
1281.137329 98.412
1290.421021 98.512
1299.771973 98.613
1309.190674 98.714
1318.677612 98.814
1328.233276 98.911
1337.858154 99.007
1347.552856 99.104
1357.317749 99.198
1367.153442 99.289
1377.060425 99.376
1387.039185 99.458
1397.090210 99.539
1407.214111 99.620
1417.411377 99.700
1427.682495 99.779
1438.028076 99.855
1448.448608 99.930
1458.944702 100.004
1469.516846 100.076
1480.165527 100.146
1490.891357 100.216
1501.694946 100.287
1512.576904 100.355
1523.537720 100.419
1534.577881 100.479
1545.698120 100.536
1556.898926 100.590
1568.180908 100.642
1579.544556 100.692
1590.990601 100.745
1602.519531 100.801
1614.132080 100.860
1625.828735 100.919
1637.610107 100.976
1649.476929 101.031
1661.429688 101.086
1673.469116 101.138
1685.595703 101.185
1697.810181 101.226
1710.113159 101.264
1722.505371 101.298
1734.987305 101.329
1747.559692 101.355
1760.223267 101.378
1772.978516 101.400
1785.826294 101.422
1798.767090 101.446
1811.801758 101.470
1824.930786 101.493
1838.155029 101.515
1851.475098 101.532
1864.891602 101.545
1878.405396 101.554
1892.017090 101.558
1905.727417 101.558
1919.537109 101.551
1933.446899 101.538
1947.457397 101.520
1961.569458 101.498
1975.783813 101.471
1990.101196 101.441
2004.522339 101.407
2019.047974 101.370
2033.678833 101.332
2048.415771 101.293
2063.259521 101.252
2078.210693 101.211
2093.270264 101.170
2108.438965 101.127
2123.717529 101.083
2139.106934 101.039
2154.607666 100.994
2170.220947 100.947
2185.947266 100.895
2201.787598 100.841
2217.742676 100.784
2233.813232 100.727
2250.000244 100.668
2266.304688 100.610
2282.727295 100.555
2299.268799 100.503
2315.930176 100.450
2332.712402 100.395
2349.616211 100.337
2366.642578 100.278
2383.792236 100.217
2401.066162 100.156
2418.465332 100.096
2435.990479 100.040
2453.642578 99.986
2471.422607 99.930
2489.331543 99.872
2507.370361 99.811
2525.539795 99.747
2543.840820 99.681
2562.274658 99.614
2580.842041 99.548
2599.543945 99.484
2618.381348 99.422
2637.355225 99.360
2656.466553 99.296
2675.716309 99.231
2695.105713 99.165
2714.635498 99.099
2734.306885 99.034
2754.120850 98.971
2774.078369 98.913
2794.180420 98.857
2814.428223 98.801
2834.822754 98.743
2855.364990 98.684
2876.056152 98.626
2896.897217 98.570
2917.889404 98.516
2939.033691 98.466
2960.331055 98.418
2981.782715 98.371
3003.389893 98.327
3025.153809 98.284
3047.075439 98.244
3069.155762 98.209
3091.396240 98.178
3113.797852 98.151
3136.361816 98.128
3159.089111 98.109
3181.981201 98.095
3205.039062 98.086
3228.264160 98.079
3251.657471 98.074
3275.220215 98.071
3298.953857 98.072
3322.859375 98.078
3346.938232 98.088
3371.191406 98.104
3395.620361 98.126
3420.226318 98.152
3445.010742 98.183
3469.974609 98.216
3495.119385 98.254
3520.446533 98.296
3545.957031 98.344
3571.652588 98.395
3597.534180 98.447
3623.603516 98.500
3649.861572 98.555
3676.310059 98.615
3702.950195 98.685
3729.783203 98.766
3756.810791 98.856
3784.034180 98.950
3811.454834 99.046
3839.074219 99.146
3866.893799 99.250
3894.914795 99.360
3923.138916 99.475
3951.567627 99.597
3980.202393 99.726
4009.044678 99.865
4038.095947 100.018
4067.357666 100.182
4096.831543 100.356
4126.519043 100.536
4156.421387 100.714
4186.540527 100.880
4216.877930 101.008
4247.435059 101.065
4278.213867 101.076
4309.215332 101.158
4340.441895 101.381
4371.894531 101.681
4403.575195 101.983
4435.485352 102.265
4467.626465 102.530
4500.000488 102.781
4532.609375 103.026
4565.454590 103.267
4598.537598 103.499
4631.860352 103.719
4665.424805 103.922
4699.232422 104.108
4733.285156 104.278
4767.584473 104.434
4802.132324 104.569
4836.930664 104.683
4871.980957 104.776
4907.285156 104.848
4942.845215 104.901
4978.663086 104.935
5014.740723 104.947
5051.079590 104.939
5087.681641 104.910
5124.549316 104.862
5161.684082 104.798
5199.087891 104.718
5236.762695 104.623
5274.710449 104.515
5312.933105 104.396
5351.432617 104.272
5390.211426 104.151
5429.270996 104.043
5468.613770 103.960
5508.241699 103.912
5548.156738 103.850
5588.360840 103.635
5628.856445 103.161
5669.645508 102.522
5710.729980 101.956
5752.112305 101.601
5793.794434 101.424
5835.778809 101.345
5878.067383 101.315
5920.662109 101.313
5963.565430 101.330
6006.779785 101.362
6050.307617 101.407
6094.150879 101.463
6138.311523 101.535
6182.792480 101.622
6227.595703 101.726
6272.723633 101.846
6318.178223 101.986
6363.962402 102.147
6410.078125 102.329
6456.528320 102.533
6503.314941 102.762
6550.440430 103.019
6597.907715 103.302
6645.718750 103.606
6693.876465 103.928
6742.382812 104.267
6791.240723 104.623
6840.452637 104.992
6890.021484 105.370
6939.949219 105.750
6990.238770 106.129
7040.893066 106.499
7091.914062 106.852
7143.305176 107.183
7195.068359 107.484
7247.207031 107.723
7299.723145 107.858
7352.620117 107.854
7405.900391 107.693
7459.566406 107.381
7513.621582 106.960
7568.068359 106.493
7622.909668 106.035
7678.148438 105.641
7733.787598 105.391
7789.829590 105.338
7846.277832 105.421
7903.135254 105.566
7960.404785 105.739
8018.089355 105.893
8076.191895 105.958
8134.715332 105.876
8193.663086 105.634
8253.038086 105.228
8312.842773 104.633
8373.081055 103.955
8433.755859 103.363
8494.870117 102.925
8556.427734 102.610
8618.430664 102.329
8680.883789 102.119
8743.789062 101.972
8807.150391 101.914
8870.970703 101.937
8935.252930 101.961
9000.000977 101.958
9065.218750 101.967
9130.909180 102.016
9197.075195 102.077
9263.720703 102.093
9330.849609 102.020
9398.464844 101.857
9466.570312 101.612
9535.168945 101.282
9604.264648 100.867
9673.861328 100.382
9743.961914 99.840
9814.570312 99.243
9885.690430 98.595
9957.326172 97.918
10029.481445 97.242
10102.159180 96.579
10175.363281 95.930
10249.098633 95.296
10323.368164 94.682
10398.175781 94.090
10473.525391 93.519
10549.420898 92.973
10625.866211 92.455
10702.865234 91.967
10780.422852 91.514
10858.541992 91.102
10937.227539 90.729
11016.483398 90.385
11096.313477 90.062
11176.721680 89.754
11257.712891 89.455
11339.291016 89.144
11421.459961 88.805
11504.224609 88.440
11587.588867 88.081
11671.557617 87.769
11756.134766 87.521
11841.324219 87.318
11927.130859 87.159
12013.559570 87.088
12100.615234 87.130
12188.301758 87.275
12276.623047 87.527
12365.584961 87.887
12455.191406 88.323
12545.447266 88.823
12636.356445 89.406
12727.924805 90.116
12820.156250 91.034
12913.056641 92.173
13006.629883 93.375
13100.880859 94.460
13195.815430 95.332
13291.437500 95.954
13387.752930 96.314
13484.765625 96.423
13582.481445 96.299
13680.905273 95.954
13780.042969 95.402
13879.898438 94.655
13980.477539 93.734
14081.786133 92.677
14183.828125 91.517
14286.610352 90.263
14390.136719 88.925
14494.414062 87.586
14599.446289 86.436
14705.240234 85.855
14811.800781 86.316
14919.132812 87.507
15027.243164 88.311
15136.136719 88.118
15245.819336 87.193
15356.296875 86.105
15467.575195 85.122
15579.659180 84.173
15692.555664 83.180
15806.270508 82.112
15920.809570 80.989
16036.178711 79.910
16152.383789 79.031
16269.430664 78.526
16387.326172 78.470
16506.076172 78.768
16625.685547 79.280
16746.162109 79.891
16867.511719 80.488
16989.740234 80.961
17112.855469 81.276
17236.861328 81.486
17361.767578 81.658
17487.578125 81.803
17614.300781 81.901
17741.941406 81.949
17870.505859 81.970
18000.001953 81.988
18130.437500 82.032
18261.818359 82.131
18394.150391 82.304
18527.441406 82.590
18661.699219 83.055
18796.929688 83.733
18933.140625 84.576
19070.337891 85.492
19208.529297 86.479
19347.722656 87.547
19487.923828 88.552
19629.140625 89.314
19771.380859 89.645
19914.652344 89.383
20058.962891 0.000
