* Measurement data measured by REW V5.20.4
* Source: Trace Arithmetic result A * B
* Format: Trace Arithmetic result A * B
* Dated: Jun 22, 2022 9:33:13 PM
* REW Settings:
*  C-weighting compensation: Off
*  Target level: 75.0 dB
* Note: Trace Arithmetic A times B A = Tanya R B = Aster Correction Averaged Fin
* Measurement: Tanya R
* Smoothing: 1/48 octave
* Frequency Step: 96 ppo
* Start Frequency: 20.0 Hz
*
* Freq(Hz) SPL(dB)
20.017769 69.370
20.162827 69.426
20.308935 69.572
20.456102 69.627
20.604336 69.690
20.753643 69.748
20.904032 69.808
21.055511 69.869
21.208088 69.932
21.361771 69.997
21.516567 70.062
21.672485 70.126
21.829533 70.190
21.987719 70.254
22.147051 70.317
22.307537 70.379
22.469187 70.440
22.632008 70.499
22.796009 70.555
22.961199 70.608
23.127584 70.658
23.295176 70.704
23.463982 70.747
23.634012 70.785
23.805275 70.817
23.977777 70.843
24.151531 70.864
24.326544 70.879
24.502825 70.891
24.680382 70.899
24.859226 70.904
25.039366 70.906
25.220812 70.908
25.403572 70.910
25.587656 70.911
25.773075 70.914
25.959837 70.918
26.147953 70.925
26.337431 70.933
26.528282 70.944
26.720516 70.957
26.914145 70.972
27.109175 70.988
27.305618 71.005
27.503487 71.021
27.702787 71.037
27.903534 71.054
28.105734 71.069
28.309401 71.085
28.514542 71.101
28.721170 71.116
28.929296 71.132
29.138929 71.146
29.350082 71.161
29.562765 71.177
29.776989 71.194
29.992765 71.213
30.210106 71.234
30.429020 71.256
30.649521 71.281
30.871620 71.308
31.095329 71.337
31.320660 71.367
31.547623 71.398
31.776230 71.428
32.006493 71.457
32.238426 71.483
32.472038 71.507
32.707344 71.528
32.944355 71.547
33.183083 71.566
33.423542 71.584
33.665741 71.602
33.909698 71.620
34.155422 71.640
34.402927 71.660
34.652225 71.681
34.903328 71.703
35.156250 71.726
35.411007 71.750
35.667610 71.774
35.926071 71.797
36.186405 71.818
36.448627 71.836
36.712749 71.852
36.978786 71.863
37.246750 71.872
37.516655 71.879
37.788517 71.884
38.062347 71.889
38.338161 71.894
38.615974 71.901
38.895802 71.908
39.177658 71.917
39.461555 71.926
39.747509 71.936
40.035538 71.944
40.325653 71.951
40.617870 71.956
40.912205 71.960
41.208672 71.962
41.507286 71.965
41.808064 71.968
42.111023 71.974
42.416176 71.982
42.723541 71.994
43.033134 72.008
43.344971 72.025
43.659065 72.043
43.975437 72.060
44.294102 72.076
44.615074 72.089
44.938374 72.099
45.264015 72.106
45.592018 72.111
45.922398 72.113
46.255169 72.114
46.590351 72.114
46.927963 72.115
47.268024 72.115
47.610550 72.116
47.955555 72.116
48.303062 72.116
48.653088 72.114
49.005650 72.110
49.360764 72.103
49.718452 72.093
50.078732 72.079
50.441624 72.061
50.807144 72.042
51.175312 72.020
51.546150 71.999
51.919674 71.979
52.295906 71.962
52.674862 71.948
53.056564 71.938
53.441032 71.932
53.828289 71.929
54.218349 71.928
54.611237 71.929
55.006973 71.930
55.405575 71.931
55.807068 71.931
56.211468 71.931
56.618801 71.929
57.029083 71.926
57.442341 71.921
57.858593 71.915
58.277859 71.907
58.700165 71.897
59.125530 71.886
59.553978 71.873
59.985531 71.859
60.420212 71.843
60.858040 71.827
61.299042 71.812
61.743240 71.798
62.190659 71.785
62.641319 71.774
63.095245 71.764
63.552460 71.753
64.012985 71.742
64.476852 71.730
64.944077 71.715
65.414688 71.699
65.888710 71.682
66.366165 71.664
66.847084 71.646
67.331482 71.627
67.819397 71.607
68.310844 71.587
68.805855 71.565
69.304451 71.542
69.806656 71.517
70.312500 71.490
70.822014 71.461
71.335220 71.431
71.852142 71.401
72.372810 71.370
72.897255 71.340
73.425499 71.312
73.957573 71.284
74.493500 71.258
75.033310 71.233
75.577034 71.210
76.124695 71.191
76.676323 71.175
77.231949 71.162
77.791603 71.150
78.355316 71.139
78.923111 71.127
79.495018 71.112
80.071075 71.094
80.651306 71.072
81.235741 71.049
81.824409 71.025
82.417343 71.001
83.014572 70.978
83.616127 70.957
84.222046 70.936
84.832352 70.917
85.447083 70.897
86.066269 70.876
86.689941 70.854
87.318130 70.829
87.950874 70.802
88.588203 70.773
89.230148 70.740
89.876747 70.705
90.528030 70.668
91.184036 70.630
91.844795 70.593
92.510338 70.558
93.180702 70.524
93.855927 70.491
94.536049 70.459
95.221100 70.428
95.911110 70.397
96.606125 70.368
97.306175 70.338
98.011299 70.308
98.721527 70.276
99.436905 70.243
100.157463 70.209
100.883247 70.175
101.614288 70.141
102.350624 70.108
103.092300 70.076
103.839348 70.046
104.591812 70.018
105.349724 69.992
106.113129 69.967
106.882065 69.942
107.656578 69.915
108.436699 69.884
109.222473 69.850
110.013947 69.813
110.811150 69.776
111.614136 69.740
112.422935 69.705
113.237602 69.671
114.058167 69.637
114.884682 69.604
115.717186 69.571
116.555717 69.538
117.400330 69.502
118.251060 69.465
119.107956 69.427
119.971062 69.387
120.840424 69.347
121.716080 69.306
122.598083 69.265
123.486481 69.223
124.381317 69.183
125.282639 69.144
126.190491 69.108
127.104919 69.075
128.025970 69.045
128.953705 69.017
129.888153 68.989
130.829376 68.958
131.777420 68.922
132.732330 68.881
133.694168 68.834
134.662964 68.785
135.638794 68.734
136.621689 68.683
137.611710 68.636
138.608902 68.593
139.613312 68.555
140.625000 68.522
141.644028 68.494
142.670441 68.471
143.704285 68.449
144.745621 68.428
145.794510 68.405
146.850998 68.380
147.915146 68.351
148.987000 68.318
150.066620 68.280
151.154068 68.238
152.249390 68.192
153.352646 68.143
154.463898 68.090
155.583206 68.038
156.710632 67.986
157.846222 67.938
158.990036 67.894
160.142151 67.853
161.302612 67.815
162.471481 67.782
163.648819 67.751
164.834686 67.722
166.029144 67.693
167.232254 67.661
168.444092 67.623
169.664703 67.577
170.894165 67.526
172.132538 67.470
173.379883 67.411
174.636261 67.351
175.901749 67.292
177.176407 67.237
178.460297 67.190
179.753494 67.154
181.056061 67.130
182.368073 67.112
183.689590 67.094
185.020676 67.071
186.361404 67.040
187.711853 67.003
189.072098 66.963
190.442200 66.922
191.822220 66.879
193.212250 66.835
194.612350 66.789
196.022598 66.741
197.443054 66.691
198.873810 66.640
200.314926 66.591
201.766495 66.543
203.228577 66.498
204.701248 66.455
206.184601 66.413
207.678696 66.368
209.183624 66.319
210.699448 66.264
212.226257 66.204
213.764130 66.143
215.313156 66.084
216.873398 66.025
218.444946 65.969
220.027893 65.917
221.622299 65.870
223.228271 65.831
224.845871 65.800
226.475204 65.773
228.116333 65.746
229.769363 65.717
231.434372 65.683
233.111435 65.642
234.800659 65.596
236.502121 65.546
238.215912 65.496
239.942123 65.447
241.680847 65.402
243.432159 65.364
245.196167 65.331
246.972961 65.302
248.762634 65.278
250.565277 65.254
252.380981 65.229
254.209839 65.197
256.051941 65.158
257.907410 65.112
259.776306 65.063
261.658752 65.013
263.554840 64.967
265.464661 64.929
267.388336 64.897
269.325928 64.870
271.277588 64.846
273.243378 64.823
275.223419 64.798
277.217804 64.769
279.226624 64.734
281.250000 64.693
283.288055 64.646
285.340881 64.596
287.408569 64.545
289.491241 64.491
291.589020 64.432
293.701996 64.372
295.830292 64.311
297.973999 64.252
300.133240 64.196
302.308136 64.142
304.498779 64.089
306.705292 64.035
308.927795 63.975
311.166412 63.910
313.421265 63.841
315.692444 63.776
317.980072 63.718
320.284302 63.672
322.605225 63.635
324.942963 63.604
327.297638 63.573
329.669373 63.540
332.058289 63.508
334.464508 63.480
336.888184 63.457
339.329407 63.436
341.788330 63.413
344.265076 63.386
346.759766 63.354
349.272522 63.316
351.803497 63.276
354.352814 63.233
356.920593 63.190
359.506989 63.146
362.112122 63.103
364.736145 63.063
367.379181 63.025
370.041351 62.988
372.722809 62.952
375.423706 62.916
378.144196 62.878
380.884399 62.840
383.644440 62.800
386.424500 62.760
389.224701 62.720
392.045197 62.679
394.886108 62.637
397.747620 62.595
400.629852 62.550
403.532990 62.502
406.457153 62.453
409.402496 62.405
412.369202 62.361
415.357391 62.323
418.367249 62.290
421.398895 62.261
424.452515 62.233
427.528259 62.205
430.626312 62.175
433.746796 62.144
436.889893 62.110
440.055786 62.073
443.244598 62.032
446.456543 61.986
449.691742 61.937
452.950409 61.887
456.232666 61.836
459.538727 61.784
462.868744 61.730
466.222870 61.675
469.601318 61.620
473.004242 61.570
476.431824 61.525
479.884247 61.487
483.361694 61.451
486.864319 61.417
490.392334 61.382
493.945923 61.346
497.525269 61.311
501.130554 61.277
504.761963 61.245
508.419678 61.215
512.103882 61.189
515.814819 61.167
519.552612 61.148
523.317505 61.135
527.109680 61.125
530.929321 61.115
534.776672 61.102
538.651855 61.083
542.555176 61.060
546.486755 61.032
550.446838 61.002
554.435608 60.969
558.453247 60.933
562.500000 60.892
566.576111 60.845
570.681763 60.796
574.817139 60.745
578.982483 60.696
583.178040 60.648
587.403992 60.604
591.660583 60.561
595.947998 60.521
600.266479 60.484
604.616272 60.452
608.997559 60.424
613.410583 60.399
617.855591 60.375
622.332825 60.353
626.842529 60.332
631.384888 60.309
635.960144 60.283
640.568604 60.255
645.210449 60.225
649.885925 60.194
654.595276 60.162
659.338745 60.130
664.116577 60.099
668.929016 60.070
673.776367 60.046
678.658813 60.028
683.576660 60.015
688.530151 60.006
693.519531 59.998
698.545044 59.989
703.606995 59.978
708.705627 59.965
713.841187 59.952
719.013977 59.941
724.224243 59.931
729.472290 59.920
734.758362 59.906
740.082703 59.890
745.445618 59.872
750.847412 59.854
756.288391 59.836
761.768799 59.820
767.288879 59.802
772.848999 59.783
778.449402 59.759
784.090393 59.734
789.772217 59.707
795.495239 59.683
801.259705 59.662
807.065979 59.646
812.914307 59.632
818.804993 59.620
824.738403 59.609
830.714783 59.601
836.734497 59.594
842.797791 59.588
848.905029 59.581
855.056519 59.575
861.252625 59.570
867.493591 59.568
873.779785 59.570
880.111572 59.574
886.489197 59.578
892.913086 59.582
899.383484 59.589
905.900818 59.597
912.465332 59.607
919.077454 59.616
925.737488 59.628
932.445740 59.644
939.202637 59.667
946.008484 59.696
952.863647 59.731
959.768494 59.768
966.723389 59.807
973.728638 59.844
980.784668 59.881
987.891846 59.919
995.050537 59.959
1002.261108 60.000
1009.523926 60.041
1016.839355 60.081
1024.207764 60.119
1031.629639 60.158
1039.105225 60.201
1046.635010 60.246
1054.219360 60.291
1061.858643 60.336
1069.553345 60.378
1077.303711 60.419
1085.110352 60.461
1092.973511 60.505
1100.893677 60.554
1108.871216 60.607
1116.906494 60.663
1125.000000 60.719
1133.152222 60.776
1141.363525 60.833
1149.634277 60.894
1157.964966 60.957
1166.356079 61.022
1174.807983 61.088
1183.321167 61.154
1191.895996 61.217
1200.532959 61.279
1209.232544 61.343
1217.995117 61.409
1226.821167 61.478
1235.711182 61.546
1244.665649 61.615
1253.685059 61.686
1262.769775 61.759
1271.920288 61.834
1281.137207 61.911
1290.420898 61.990
1299.771851 62.069
1309.190552 62.149
1318.677490 62.230
1328.233154 62.308
1337.858032 62.384
1347.552734 62.457
1357.317627 62.526
1367.153320 62.592
1377.060303 62.651
1387.039062 62.703
1397.090088 62.751
1407.213989 62.800
1417.411255 62.852
1427.682373 62.906
1438.027954 62.961
1448.448486 63.017
1458.944580 63.075
1469.516724 63.134
1480.165405 63.195
1490.891235 63.258
1501.694824 63.322
1512.576782 63.386
1523.537598 63.452
1534.577759 63.520
1545.697998 63.592
1556.898804 63.667
1568.180786 63.744
1579.544434 63.819
1590.990479 63.892
1602.519409 63.964
1614.131958 64.037
1625.828613 64.109
1637.609985 64.179
1649.476807 64.249
1661.429565 64.321
1673.468994 64.397
1685.595581 64.476
1697.810059 64.556
1710.113037 64.633
1722.505249 64.705
1734.987183 64.773
1747.559570 64.840
1760.223145 64.908
1772.978394 64.976
1785.826172 65.046
1798.766968 65.119
1811.801636 65.196
1824.930664 65.275
1838.154907 65.353
1851.474976 65.429
1864.891479 65.507
1878.405273 65.590
1892.016968 65.676
1905.727295 65.765
1919.536987 65.855
1933.446777 65.947
1947.457275 66.038
1961.569336 66.127
1975.783691 66.215
1990.101074 66.301
2004.522217 66.389
2019.047852 66.479
2033.678711 66.572
2048.415527 66.667
2063.259277 66.765
2078.210449 66.867
2093.270020 66.973
2108.438721 67.082
2123.717285 67.193
2139.106689 67.305
2154.607422 67.415
2170.220703 67.523
2185.947021 67.627
2201.787354 67.729
2217.742432 67.832
2233.812988 67.939
2250.000000 68.052
2266.304443 68.169
2282.727051 68.290
2299.268555 68.415
2315.929932 68.541
2332.712158 68.670
2349.615967 68.801
2366.642334 68.934
2383.791992 69.066
2401.065918 69.194
2418.465088 69.318
2435.990234 69.439
2453.642334 69.560
2471.422363 69.682
2489.331299 69.809
2507.370117 69.941
2525.539551 70.076
2543.840576 70.214
2562.274414 70.355
2580.841797 70.498
2599.543701 70.644
2618.381104 70.790
2637.354980 70.935
2656.466309 71.081
2675.716064 71.228
2695.105469 71.378
2714.635254 71.530
2734.306641 71.683
2754.120605 71.832
2774.078125 71.973
2794.180176 72.105
2814.427979 72.229
2834.822510 72.345
2855.364746 72.455
2876.055908 72.558
2896.896973 72.652
2917.889160 72.738
2939.033447 72.815
2960.330811 72.884
2981.782471 72.943
3003.389648 72.991
3025.153564 73.027
3047.075195 73.049
3069.155518 73.056
3091.395996 73.047
3113.797607 73.025
3136.361572 72.990
3159.088867 72.944
3181.980957 72.891
3205.038818 72.831
3228.263916 72.763
3251.657227 72.683
3275.219971 72.589
3298.953613 72.479
3322.859131 72.357
3346.937988 72.226
3371.191162 72.091
3395.620117 71.956
3420.226074 71.823
3445.010498 71.691
3469.974365 71.558
3495.119141 71.421
3520.446289 71.278
3545.956787 71.127
3571.652344 70.972
3597.533936 70.816
3623.603271 70.664
3649.861328 70.517
3676.309814 70.377
3702.949951 70.242
3729.782959 70.108
3756.810547 69.973
3784.033936 69.839
3811.454590 69.706
3839.073975 69.576
3866.893555 69.447
3894.914551 69.321
3923.138672 69.199
3951.567383 69.084
3980.202148 68.979
4009.044434 68.883
4038.095703 68.794
4067.357422 68.705
4096.831055 68.614
4126.518555 68.520
4156.420898 68.425
4186.540039 68.331
4216.877441 68.242
4247.434570 68.165
4278.213379 68.103
4309.214844 68.062
4340.441406 68.044
4371.894043 68.044
4403.574707 68.050
4435.484863 68.049
4467.625977 68.031
4500.000000 67.994
4532.608887 67.946
4565.454102 67.899
4598.537109 67.860
4631.859863 67.836
4665.424316 67.824
4699.231934 67.821
4733.284668 67.823
4767.583984 67.824
4802.131836 67.825
4836.930176 67.830
4871.980469 67.839
4907.284668 67.853
4942.844727 67.871
4978.662598 67.891
5014.740234 67.915
5051.079102 67.943
5087.681152 67.974
5124.548828 68.009
5161.683594 68.045
5199.087402 68.082
5236.762207 68.122
5274.709961 68.165
5312.932617 68.209
5351.432129 68.250
5390.210938 68.285
5429.270508 68.311
5468.613281 68.328
5508.241211 68.335
5548.156250 68.332
5588.360352 68.319
5628.855957 68.302
5669.645020 68.286
5710.729492 68.272
5752.111816 68.259
5793.793945 68.245
5835.778320 68.230
5878.066895 68.215
5920.661621 68.199
5963.564941 68.181
6006.779297 68.165
6050.307129 68.150
6094.150391 68.134
6138.311035 68.113
6182.791992 68.081
6227.595215 68.032
6272.723145 67.967
6318.177734 67.890
6363.961914 67.802
6410.077637 67.703
6456.527832 67.593
6503.314453 67.472
6550.439941 67.342
6597.907227 67.205
6645.718262 67.062
6693.875977 66.917
6742.382324 66.769
6791.240234 66.621
6840.452148 66.472
6890.020996 66.326
6939.948730 66.185
6990.238281 66.051
7040.892578 65.924
7091.913574 65.806
7143.304688 65.700
7195.067871 65.605
7247.206543 65.516
7299.722656 65.433
7352.619629 65.367
7405.899902 65.328
7459.565918 65.314
7513.621094 65.313
7568.067871 65.315
7622.909180 65.323
7678.147949 65.345
7733.787109 65.389
7789.829102 65.460
7846.277344 65.563
7903.134766 65.694
7960.404297 65.842
8018.088867 66.002
8076.191406 66.172
8134.714844 66.348
8193.662109 66.520
8253.037109 66.675
8312.841797 66.801
8373.080078 66.890
8433.754883 66.940
8494.869141 66.956
8556.426758 66.939
8618.429688 66.886
8680.882812 66.793
8743.788086 66.658
8807.149414 66.478
8870.969727 66.253
8935.251953 65.982
9000.000000 65.663
9065.217773 65.297
9130.908203 64.889
9197.074219 64.449
9263.719727 63.988
9330.848633 63.509
9398.463867 63.014
9466.569336 62.504
9535.167969 61.990
9604.263672 61.479
9673.860352 60.981
9743.960938 60.497
9814.569336 60.027
9885.689453 59.571
9957.325195 59.131
10029.480469 58.708
10102.158203 58.300
10175.362305 57.907
10249.097656 57.528
10323.367188 57.159
10398.174805 56.791
10473.524414 56.416
10549.419922 56.025
10625.865234 55.615
10702.864258 55.190
10780.421875 54.749
10858.541016 54.290
10937.226562 53.807
11016.482422 53.306
11096.312500 52.794
11176.720703 52.272
11257.711914 51.746
11339.290039 51.233
11421.458984 50.755
11504.223633 50.322
11587.587891 49.939
11671.556641 49.614
11756.133789 49.351
11841.323242 49.149
11927.129883 49.011
12013.558594 48.951
12100.614258 48.998
12188.300781 49.152
12276.622070 49.377
12365.583984 49.633
12455.190430 49.908
12545.446289 50.198
12636.355469 50.505
12727.923828 50.827
12820.155273 51.136
12913.055664 51.398
13006.628906 51.609
13100.879883 51.787
13195.814453 51.939
13291.436523 52.058
13387.751953 52.136
13484.764648 52.172
13582.480469 52.170
13680.904297 52.121
13780.041992 52.031
13879.897461 51.964
13980.476562 52.006
14081.785156 52.213
14183.827148 52.575
14286.609375 53.054
14390.135742 53.660
14494.413086 54.530
14599.445312 55.814
14705.239258 57.334
14811.799805 58.837
14919.131836 60.243
15027.242188 61.526
15136.135742 62.662
15245.818359 63.497
15356.295898 63.959
15467.574219 64.117
15579.658203 63.989
15692.554688 63.595
15806.269531 63.012
15920.808594 62.303
16036.177734 61.503
16152.382812 60.647
16269.429688 59.772
16387.324219 58.895
16506.074219 58.007
16625.683594 57.086
16746.160156 56.122
16867.509766 55.177
16989.738281 54.355
17112.853516 53.673
17236.859375 53.170
17361.765625 52.908
17487.576172 52.885
17614.298828 53.066
17741.939453 53.424
17870.503906 53.933
18000.000000 54.547
18130.435547 55.188
18261.816406 55.728
18394.148438 56.007
18527.439453 55.885
18661.697266 55.275
18796.927734 54.173
18933.138672 52.655
19070.335938 50.845
19208.527344 48.876
19347.720703 46.853
19487.921875 44.835
19629.138672 42.845
19771.378906 40.952
19914.650391 39.550
