* Measurement data measured by REW V5.20.4
* Source: Trace Arithmetic result A * B
* Format: Trace Arithmetic result A * B
* Dated: Jul 15, 2022 11:40:53 AM
* REW Settings:
*  C-weighting compensation: Off
*  Target level: 75.0 dB
* Note: Trace Arithmetic A times B A = Shimin Li R B = Aster Correction Averaged Fin
* Measurement: Shimin Li R
* Smoothing: 1/48 octave
* Frequency Step: 96 ppo
* Start Frequency: 20.0 Hz
*
* Freq(Hz) SPL(dB)
20.055882 66.235
20.201214 66.545
20.347601 66.634
20.495049 66.681
20.643564 66.734
20.793156 66.774
20.943832 66.814
21.095600 66.853
21.248468 66.891
21.402443 66.927
21.557533 66.961
21.713749 66.992
21.871096 67.020
22.029583 67.046
22.189219 67.070
22.350010 67.093
22.511967 67.115
22.675098 67.136
22.839411 67.156
23.004915 67.176
23.171618 67.196
23.339529 67.217
23.508657 67.239
23.679010 67.260
23.850597 67.281
24.023428 67.301
24.197512 67.320
24.372856 67.338
24.549473 67.356
24.727369 67.374
24.906553 67.391
25.087036 67.408
25.268827 67.425
25.451937 67.442
25.636372 67.458
25.822144 67.475
26.009262 67.491
26.197737 67.507
26.387577 67.524
26.578793 67.541
26.771393 67.558
26.965389 67.575
27.160791 67.591
27.357609 67.608
27.555853 67.624
27.755533 67.639
27.956661 67.655
28.159246 67.672
28.363300 67.688
28.568832 67.705
28.775854 67.721
28.984375 67.737
29.194408 67.751
29.405964 67.765
29.619051 67.777
29.833683 67.788
30.049870 67.798
30.267624 67.808
30.486956 67.816
30.707876 67.824
30.930399 67.832
31.154533 67.840
31.380293 67.848
31.607687 67.857
31.836729 67.865
32.067432 67.872
32.299805 67.879
32.533863 67.885
32.769615 67.890
33.007076 67.895
33.246258 67.900
33.487175 67.905
33.729836 67.910
33.974255 67.915
34.220448 67.918
34.468422 67.921
34.718193 67.922
34.969776 67.922
35.223183 67.921
35.478424 67.920
35.735516 67.919
35.994469 67.918
36.255299 67.917
36.518021 67.915
36.782646 67.913
37.049187 67.911
37.317661 67.909
37.588081 67.908
37.860458 67.906
38.134811 67.904
38.411152 67.903
38.689495 67.901
38.969856 67.899
39.252247 67.896
39.536686 67.893
39.823185 67.888
40.111759 67.882
40.402424 67.874
40.695198 67.865
40.990093 67.854
41.287125 67.841
41.586308 67.827
41.887657 67.812
42.191193 67.797
42.496929 67.782
42.804878 67.767
43.115059 67.755
43.427490 67.744
43.742184 67.734
44.059158 67.727
44.378429 67.721
44.700012 67.717
45.023926 67.713
45.350189 67.709
45.678814 67.704
46.009823 67.699
46.343227 67.691
46.679050 67.682
47.017307 67.672
47.358013 67.659
47.701187 67.644
48.046848 67.628
48.395016 67.611
48.745705 67.593
49.098938 67.575
49.454731 67.558
49.813099 67.542
50.174065 67.527
50.537647 67.513
50.903862 67.502
51.272732 67.491
51.644276 67.481
52.018513 67.471
52.395462 67.460
52.775143 67.449
53.157574 67.437
53.542774 67.422
53.930767 67.407
54.321571 67.390
54.715206 67.372
55.111694 67.352
55.511055 67.332
55.913311 67.311
56.318481 67.290
56.726589 67.268
57.137653 67.247
57.551697 67.225
57.968739 67.203
58.388805 67.182
58.811916 67.161
59.238091 67.140
59.667355 67.119
60.099728 67.098
60.535236 67.077
60.973900 67.056
61.415741 67.037
61.860786 67.019
62.309055 67.003
62.760571 66.989
63.215359 66.974
63.673443 66.960
64.134850 66.945
64.599594 66.929
65.067711 66.912
65.539215 66.894
66.014137 66.875
66.492500 66.854
66.974335 66.832
67.459656 66.807
67.948494 66.780
68.440880 66.751
68.936829 66.723
69.436371 66.694
69.939537 66.666
70.446350 66.637
70.956833 66.608
71.471016 66.578
71.988922 66.547
72.510582 66.517
73.036026 66.489
73.565277 66.461
74.098358 66.435
74.635307 66.409
75.176147 66.382
75.720901 66.356
76.269608 66.328
76.822289 66.300
77.378975 66.272
77.939697 66.242
78.504478 66.211
79.073357 66.180
79.646355 66.149
80.223503 66.119
80.804832 66.091
81.390381 66.066
81.980171 66.044
82.574234 66.024
83.172600 66.005
83.775299 65.988
84.382370 65.970
84.993843 65.950
85.609741 65.929
86.230103 65.906
86.854965 65.882
87.484352 65.858
88.118301 65.833
88.756844 65.809
89.400009 65.783
90.047836 65.757
90.700363 65.730
91.357613 65.702
92.019630 65.674
92.686440 65.643
93.358086 65.610
94.034599 65.574
94.716011 65.536
95.402359 65.499
96.093681 65.464
96.790016 65.432
97.491394 65.402
98.197853 65.375
98.909431 65.348
99.626167 65.319
100.348099 65.289
101.075264 65.255
101.807693 65.219
102.545433 65.181
103.288521 65.144
104.036995 65.107
104.790894 65.071
105.550255 65.035
106.315117 64.998
107.085518 64.961
107.861504 64.923
108.643112 64.884
109.430382 64.844
110.223358 64.804
111.022079 64.767
111.826591 64.732
112.636932 64.699
113.453148 64.669
114.275276 64.638
115.103363 64.605
115.937447 64.569
116.777580 64.532
117.623802 64.494
118.476151 64.458
119.334679 64.423
120.199425 64.390
121.070442 64.359
121.947769 64.327
122.831451 64.296
123.721542 64.263
124.618080 64.229
125.521111 64.193
126.430687 64.156
127.346855 64.119
128.269669 64.081
129.199158 64.044
130.135391 64.007
131.078400 63.972
132.028244 63.937
132.984970 63.903
133.948639 63.868
134.919281 63.833
135.896957 63.798
136.881729 63.763
137.873627 63.728
138.872711 63.693
139.879044 63.660
140.892670 63.628
141.913635 63.595
142.942001 63.562
143.977814 63.527
145.021133 63.491
146.072021 63.454
147.130524 63.416
148.196686 63.377
149.270584 63.338
150.352264 63.299
151.441772 63.262
152.539185 63.227
153.644547 63.193
154.757919 63.159
155.879364 63.124
157.008926 63.089
158.146683 63.056
159.292679 63.024
160.446976 62.992
161.609634 62.960
162.780731 62.926
163.960312 62.891
165.148438 62.855
166.345169 62.821
167.550568 62.786
168.764709 62.753
169.987656 62.720
171.219452 62.686
172.460175 62.651
173.709885 62.615
174.968658 62.577
176.236557 62.539
177.513641 62.502
178.799973 62.466
180.095627 62.430
181.400681 62.393
182.715179 62.356
184.039215 62.320
185.372833 62.285
186.716125 62.252
188.069153 62.219
189.431976 62.187
190.804672 62.154
192.187317 62.118
193.579987 62.080
194.982742 62.043
196.395660 62.008
197.818817 61.976
199.252289 61.944
200.696152 61.910
202.150482 61.876
203.615341 61.842
205.090820 61.808
206.576996 61.775
208.073944 61.742
209.581726 61.707
211.100449 61.671
212.630173 61.634
214.170975 61.597
215.722946 61.562
217.286163 61.529
218.860703 61.497
220.446655 61.464
222.044098 61.431
223.653122 61.399
225.273804 61.369
226.906235 61.340
228.550491 61.311
230.206665 61.282
231.874832 61.252
233.555099 61.223
235.247543 61.193
236.952240 61.164
238.669296 61.136
240.398788 61.108
242.140823 61.080
243.895477 61.050
245.662842 61.018
247.443008 60.987
249.236084 60.956
251.042145 60.927
252.861298 60.898
254.693634 60.869
256.539246 60.840
258.398224 60.811
260.270691 60.782
262.156708 60.754
264.056396 60.727
265.969849 60.699
267.897186 60.672
269.838470 60.643
271.793823 60.614
273.763367 60.586
275.747162 60.558
277.745331 60.531
279.757996 60.504
281.785248 60.478
283.827179 60.451
285.883911 60.423
287.955536 60.396
290.042175 60.367
292.143951 60.337
294.260956 60.308
296.393280 60.282
298.541077 60.256
300.704437 60.231
302.883453 60.206
305.078278 60.179
307.289001 60.152
309.515747 60.125
311.758636 60.100
314.017761 60.075
316.293274 60.048
318.585266 60.021
320.893860 59.993
323.219177 59.966
325.561371 59.940
327.920532 59.916
330.296783 59.894
332.690247 59.873
335.101044 59.853
337.529327 59.832
339.975189 59.809
342.438782 59.785
344.920227 59.760
347.419647 59.735
349.937195 59.711
352.472992 59.688
355.027161 59.664
357.599823 59.638
360.191132 59.610
362.801239 59.581
365.430237 59.553
368.078308 59.522
370.745544 59.501
373.432129 59.503
376.138184 59.525
378.863831 59.540
381.609222 59.528
384.374512 59.493
387.159851 59.455
389.965363 59.423
392.791199 59.396
395.637512 59.366
398.504456 59.337
401.392181 59.313
404.300842 59.294
407.230560 59.275
410.181519 59.254
413.153870 59.232
416.147766 59.209
419.163330 59.187
422.200775 59.165
425.260223 59.146
428.341827 59.129
431.445770 59.113
434.572205 59.098
437.721283 59.082
440.893188 59.064
444.088074 59.045
447.306122 59.028
450.547485 59.010
453.812347 58.994
457.100861 58.978
460.413208 58.963
463.749542 58.947
467.110077 58.930
470.494934 58.911
473.904327 58.893
477.338440 58.878
480.797424 58.867
484.281494 58.858
487.790802 58.850
491.325531 58.841
494.885864 58.832
498.472015 58.822
502.084137 58.813
505.722443 58.805
509.387115 58.796
513.078369 58.786
516.796326 58.775
520.541260 58.764
524.313293 58.752
528.112671 58.742
531.939575 58.732
535.794250 58.721
539.676819 58.710
543.587524 58.698
547.526611 58.686
551.494202 58.675
555.490540 58.664
559.515869 58.655
563.570374 58.647
567.654236 58.642
571.767700 58.638
575.910950 58.635
580.084229 58.633
584.287781 58.630
588.521790 58.629
592.786438 58.628
597.082031 58.626
601.408752 58.624
605.766785 58.621
610.156433 58.616
614.577881 58.610
619.031372 58.604
623.517151 58.599
628.035400 58.596
632.586426 58.593
637.170410 58.589
641.787598 58.584
646.438232 58.578
651.122620 58.579
655.840942 58.586
660.593445 58.592
665.380371 58.593
670.201965 58.592
675.058533 58.591
679.950256 58.591
684.877441 58.591
689.840332 58.593
694.839172 58.600
699.874268 58.608
704.945862 58.616
710.054199 58.622
715.199524 58.626
720.382141 58.629
725.602356 58.634
730.860352 58.641
736.156494 58.652
741.490967 58.668
746.864136 58.684
752.276245 58.699
757.727539 58.712
763.218323 58.725
768.748901 58.737
774.319580 58.750
779.930603 58.762
785.582275 58.774
791.274902 58.788
797.008789 58.803
802.784241 58.819
808.601562 58.837
814.460999 58.857
820.362915 58.877
826.307617 58.899
832.295410 58.921
838.326538 58.944
844.401428 58.967
850.520325 58.991
856.683533 59.016
862.891418 59.043
869.144287 59.074
875.442444 59.108
881.786255 59.143
888.176025 59.179
894.612122 59.216
901.094849 59.253
907.624573 59.293
914.201599 59.335
920.826294 59.381
927.498962 59.427
934.220032 59.475
940.989746 59.524
947.808533 59.575
954.676758 59.628
961.594727 59.683
968.562866 59.742
975.581482 59.804
982.650940 59.868
989.771606 59.933
996.943909 60.000
1004.168152 60.068
1011.444763 60.138
1018.774109 60.210
1026.156616 60.283
1033.592529 60.359
1041.082397 60.439
1048.626465 60.521
1056.225220 60.605
1063.879028 60.692
1071.588379 60.780
1079.353516 60.870
1087.174927 60.962
1095.053101 61.056
1102.988281 61.153
1110.980957 61.252
1119.031616 61.352
1127.140625 61.454
1135.308350 61.557
1143.535278 61.662
1151.821777 61.769
1160.168335 61.880
1168.575439 61.994
1177.043457 62.111
1185.572754 62.233
1194.163940 62.359
1202.817383 62.490
1211.533447 62.625
1220.312744 62.757
1229.155640 62.873
1238.062622 62.947
1247.034180 62.955
1256.070679 62.890
1265.172729 62.790
1274.340698 62.720
1283.575073 62.725
1292.876343 62.802
1302.245117 62.914
1311.681763 63.032
1321.186768 63.145
1330.760620 63.256
1340.403809 63.370
1350.116943 63.489
1359.900391 63.612
1369.754761 63.738
1379.680542 63.863
1389.678223 63.986
1399.748413 64.108
1409.891602 64.230
1420.108276 64.350
1430.398926 64.471
1440.764160 64.595
1451.204590 64.720
1461.720581 64.846
1472.312866 64.970
1482.981812 65.093
1493.728149 65.216
1504.552368 65.339
1515.454956 65.462
1526.436523 65.586
1537.497681 65.709
1548.639038 65.834
1559.861084 65.957
1571.164429 66.081
1582.549683 66.205
1594.017456 66.328
1605.568359 66.452
1617.203003 66.577
1628.921875 66.702
1640.725708 66.828
1652.615112 66.953
1664.590698 67.079
1676.652954 67.206
1688.802612 67.337
1701.040405 67.471
1713.366821 67.608
1725.782593 67.744
1738.288330 67.879
1750.884644 68.016
1763.572266 68.153
1776.351807 68.294
1789.223999 68.437
1802.189453 68.583
1815.248901 68.732
1828.402954 68.882
1841.652344 69.032
1854.997681 69.182
1868.439819 69.332
1881.979248 69.483
1895.616821 69.634
1909.353271 69.785
1923.189209 69.936
1937.125488 70.087
1951.162720 70.236
1965.301636 70.383
1979.542969 70.527
1993.887573 70.669
2008.336060 70.807
2022.889282 70.942
2037.547974 71.071
2052.312988 71.197
2067.184814 71.318
2082.164551 71.435
2097.252686 71.548
2112.450195 71.656
2127.757812 71.759
2143.176514 71.855
2158.706787 71.944
2174.349609 72.024
2190.105957 72.096
2205.976318 72.158
2221.961670 72.212
2238.062988 72.256
2254.281006 72.292
2270.616455 72.319
2287.070312 72.336
2303.643311 72.345
2320.336426 72.343
2337.150635 72.332
2354.086670 72.312
2371.145264 72.284
2388.327637 72.248
2405.634521 72.205
2423.066650 72.155
2440.625244 72.099
2458.311035 72.038
2476.125000 71.971
2494.068115 71.900
2512.141113 71.824
2530.345215 71.743
2548.681152 71.659
2567.149902 71.571
2585.752441 71.481
2604.489990 71.388
2623.363281 71.294
2642.373291 71.200
2661.520996 71.106
2680.807373 71.012
2700.233643 70.918
2719.800537 70.823
2739.509277 70.727
2759.360840 70.630
2779.356201 70.534
2799.496582 70.439
2819.782959 70.345
2840.216309 70.254
2860.797607 70.165
2881.528076 70.079
2902.408936 69.995
2923.440918 69.913
2944.625488 69.833
2965.963379 69.756
2987.456055 69.682
3009.104492 69.611
3030.909668 69.545
3052.872803 69.482
3074.995117 69.423
3097.277832 69.368
3119.721924 69.315
3142.328613 69.265
3165.099121 69.218
3188.034668 69.175
3211.136475 69.136
3234.405762 69.102
3257.843506 69.071
3281.451172 69.045
3305.229980 69.023
3329.181152 69.005
3353.305664 68.992
3377.604980 68.983
3402.080566 68.978
3426.733398 68.977
3451.564941 68.978
3476.576416 68.984
3501.769043 68.993
3527.144287 69.008
3552.703369 69.028
3578.447754 69.055
3604.378662 69.087
3630.497559 69.122
3656.805664 69.161
3683.304443 69.203
3709.995117 69.246
3736.879150 69.291
3763.958008 69.335
3791.233154 69.378
3818.706055 69.419
3846.377930 69.457
3874.250488 69.493
3902.324951 69.526
3930.602783 69.556
3959.085449 69.584
3987.774658 69.607
4016.671631 69.625
4045.778076 69.636
4075.095459 69.637
4104.625488 69.627
4134.369141 69.603
4164.328613 69.564
4194.504883 69.507
4224.899902 69.432
4255.515137 69.337
4286.352539 69.221
4317.413086 69.084
4348.698730 68.926
4380.211426 68.747
4411.952148 68.544
4443.922852 68.319
4476.125488 68.073
4508.561523 67.808
4541.232422 67.527
4574.140137 67.234
4607.286133 66.934
4640.672363 66.630
4674.300781 66.326
4708.172852 66.026
4742.290039 65.729
4776.654785 65.438
4811.268555 65.152
4846.132812 64.871
4881.250000 64.595
4916.621582 64.322
4952.249512 64.053
4988.135742 63.787
5024.281738 63.526
5060.689941 63.271
5097.361816 63.023
5134.299316 62.784
5171.504395 62.553
5208.979004 62.330
5246.725586 62.115
5284.745605 61.909
5323.041016 61.711
5361.613770 61.518
5400.466309 61.327
5439.600098 61.136
5479.017578 60.947
5518.720703 60.768
5558.711426 60.608
5598.992188 60.466
5639.564941 60.331
5680.431641 60.194
5721.594238 60.053
5763.055176 59.914
5804.816406 59.785
5846.880371 59.669
5889.249512 59.567
5931.925293 59.478
5974.910645 59.398
6018.207520 59.326
6061.817871 59.258
6105.744141 59.195
6149.988770 59.136
6194.554199 59.079
6239.442383 59.022
6284.655762 58.964
6330.196777 58.906
6376.067871 58.848
6422.271484 58.790
6468.810059 58.733
6515.685547 58.678
6562.900879 58.626
6610.458496 58.578
6658.360840 58.534
6706.609863 58.497
6755.208496 58.468
6804.159668 58.451
6853.465332 58.447
6903.128418 58.459
6953.151367 58.491
7003.536621 58.543
7054.287109 58.619
7105.405273 58.724
7156.894043 58.859
7208.755859 59.024
7260.993652 59.221
7313.609863 59.450
7366.607422 59.713
7419.988770 60.012
7473.756836 60.351
7527.914551 60.733
7582.464844 61.163
7637.410645 61.646
7692.754395 62.184
7748.499023 62.781
7804.647949 63.439
7861.203613 64.154
7918.168945 64.909
7975.547363 65.671
8033.341309 66.394
8091.554199 67.022
8150.188965 67.490
8209.249023 67.739
8268.736328 67.730
8328.655273 67.451
8389.007812 66.920
8449.797852 66.183
8511.028320 65.307
8572.703125 64.354
8634.824219 63.376
8697.395508 62.409
8760.420898 61.474
8823.902344 60.584
8887.843750 59.746
8952.249023 58.963
9017.121094 58.233
9082.462891 57.553
9148.278320 56.920
9214.570312 56.332
9281.342773 55.784
9348.599609 55.272
9416.343750 54.795
9484.578125 54.347
9553.307617 53.929
9622.535156 53.538
9692.263672 53.176
9762.498047 52.841
9833.241211 52.536
9904.497070 52.260
9976.269531 52.013
10048.561523 51.794
10121.377930 51.605
10194.721680 51.448
10268.596680 51.326
10343.006836 51.238
10417.956055 51.181
10493.449219 51.152
10569.489258 51.146
10646.080078 51.157
10723.225586 51.177
10800.930664 51.194
10879.198242 51.190
10958.033203 51.157
11037.439453 51.100
11117.420898 51.028
11197.982422 50.952
11279.127930 50.891
11360.861328 50.877
11443.186523 50.933
11526.108398 51.071
11609.630859 51.302
11693.758789 51.640
11778.497070 52.090
11863.848633 52.660
11949.819336 53.362
12036.413086 54.219
12123.633789 55.245
12211.486328 56.393
12299.975586 57.570
12389.106445 58.669
12478.882812 59.581
12569.309570 60.206
12660.391602 60.481
12752.133789 60.388
12844.541016 59.944
12937.618164 59.203
13031.369141 58.261
13125.799805 57.221
13220.915039 56.152
13316.719727 55.083
13413.217773 54.016
13510.415039 52.953
13608.317383 51.895
13706.928711 50.827
13806.254883 49.753
13906.300781 48.727
14007.071289 47.827
14108.572266 47.098
14210.808594 46.526
14313.786133 46.070
14417.509766 45.737
14521.985352 45.665
14627.217773 46.007
14733.212891 46.580
14839.975586 47.170
14947.511719 47.749
15055.827148 48.371
15164.927734 49.088
15274.819336 49.796
15385.506836 50.485
15496.996094 51.191
15609.293945 51.863
15722.405273 52.489
15836.335938 53.091
15951.092773 53.663
16066.680664 54.185
16183.106445 54.640
16300.375977 54.995
16418.496094 55.178
16537.470703 55.095
16657.308594 54.664
16778.013672 53.845
16899.593750 52.708
17022.054688 51.358
17145.404297 49.862
17269.646484 48.342
17394.789062 46.931
17520.839844 45.684
17647.802734 44.597
17775.685547 43.664
17904.496094 42.872
18034.240234 42.206
18164.923828 41.652
18296.554688 41.197
18429.138672 40.825
18562.683594 40.533
18697.197266 40.315
18832.685547 40.168
18969.154297 40.089
19106.613281 40.079
19245.068359 40.144
19384.525391 40.276
19524.994141 40.446
19666.480469 40.593
19808.992188 40.663
19952.537109 40.672
